#
# Results on Wed, 12 Feb 2025 17:16:23 GMT
# USER AGENT: Mozilla/5.0 (Macintosh; Intel Mac OS X 10_15_7) AppleWebKit/537.36 (KHTML, like Gecko) Chrome/133.0.0.0 Safari/537.36
# Design number was non-random = 20
#
# Columns below this comment are as follows:
# 1. Results reception time.
# 2. MD5 hash of participant's IP address.
# 3. Controller name.
# 4. Order number of item.
# 5. Inner element number.
# 6. Label.
# 7. Latin Square Group.
# 8. PennElementType.
# 9. PennElementName.
# 10. Parameter.
# 11. Value.
# 12. EventTime.
# 13. sonaID.
# 14. Comments.
1739380583,7a80f08f45b84e3c16d3c647c4aec7e1,PennController,3,0,consent,NULL,PennController,0,_Trial_,Start,1739379790294,6318,NULL
1739380583,7a80f08f45b84e3c16d3c647c4aec7e1,PennController,3,0,consent,NULL,PennController,0,_Header_,Start,1739379790294,6318,NULL
1739380583,7a80f08f45b84e3c16d3c647c4aec7e1,PennController,3,0,consent,NULL,PennController,0,_Header_,End,1739379790294,6318,NULL
1739380583,7a80f08f45b84e3c16d3c647c4aec7e1,PennController,3,0,consent,NULL,PennController,0,_Trial_,End,1739379804398,6318,NULL
1739380583,7a80f08f45b84e3c16d3c647c4aec7e1,PennController,4,0,demographics,NULL,PennController,1,_Trial_,Start,1739379804400,6318,NULL
1739380583,7a80f08f45b84e3c16d3c647c4aec7e1,PennController,4,0,demographics,NULL,PennController,1,_Header_,Start,1739379804400,6318,NULL
1739380583,7a80f08f45b84e3c16d3c647c4aec7e1,PennController,4,0,demographics,NULL,PennController,1,_Header_,End,1739379804400,6318,NULL
1739380583,7a80f08f45b84e3c16d3c647c4aec7e1,PennController,4,0,demographics,NULL,Scale,gender,Choice,Female,1739379806058,6318,NULL
1739380583,7a80f08f45b84e3c16d3c647c4aec7e1,PennController,4,0,demographics,NULL,Scale,english,Choice,Yes%2C I am a native British English speaker,1739379809903,6318,NULL
1739380583,7a80f08f45b84e3c16d3c647c4aec7e1,PennController,4,0,demographics,NULL,Scale,english_age,Choice,Yes,1739379812872,6318,NULL
1739380583,7a80f08f45b84e3c16d3c647c4aec7e1,PennController,4,0,demographics,NULL,Scale,difficulty_reading,Choice,No,1739379815477,6318,NULL
1739380583,7a80f08f45b84e3c16d3c647c4aec7e1,PennController,4,0,demographics,NULL,TextInput,age,EnterReturn,19,1739379808385,6318,NULL
1739380583,7a80f08f45b84e3c16d3c647c4aec7e1,PennController,4,0,demographics,NULL,TextInput,age,Final,19,1739379816917,6318,NULL
1739380583,7a80f08f45b84e3c16d3c647c4aec7e1,PennController,4,0,demographics,NULL,TextInput,age,First,,1739379808115,6318,1
1739380583,7a80f08f45b84e3c16d3c647c4aec7e1,PennController,4,0,demographics,NULL,PennController,1,_Trial_,End,1739379816918,6318,NULL
1739380583,7a80f08f45b84e3c16d3c647c4aec7e1,PennController,6,0,demo,NULL,PennController,3,_Trial_,Start,1739379816920,6318,NULL
1739380583,7a80f08f45b84e3c16d3c647c4aec7e1,PennController,6,0,demo,NULL,PennController,3,_Header_,Start,1739379816920,6318,NULL
1739380583,7a80f08f45b84e3c16d3c647c4aec7e1,PennController,6,0,demo,NULL,PennController,3,_Header_,End,1739379816920,6318,NULL
1739380583,7a80f08f45b84e3c16d3c647c4aec7e1,PennController,6,0,demo,NULL,Key,spacebar,PressedKey, ,1739379842345,6318,Wait success
1739380583,7a80f08f45b84e3c16d3c647c4aec7e1,PennController,6,0,demo,NULL,Key,test1-start,PressedKey, ,1739379843387,6318,Wait success
1739380583,7a80f08f45b84e3c16d3c647c4aec7e1,PennController,6,0,demo,NULL,Key,0-Liam and Ava went to a yoga class.,PressedKey, ,1739379844315,6318,Wait success
1739380583,7a80f08f45b84e3c16d3c647c4aec7e1,PennController,6,0,demo,NULL,Key,1-Ava struggled with some of the poses.,PressedKey, ,1739379845544,6318,Wait success
1739380583,7a80f08f45b84e3c16d3c647c4aec7e1,PennController,6,0,demo,NULL,Key,2-Liam suggested that,PressedKey, ,1739379846205,6318,Wait success
1739380583,7a80f08f45b84e3c16d3c647c4aec7e1,PennController,6,0,demo,NULL,Key,3-with more,PressedKey, ,1739379846868,6318,Wait success
1739380583,7a80f08f45b84e3c16d3c647c4aec7e1,PennController,6,0,demo,NULL,Key,4-practice%2C,PressedKey, ,1739379847321,6318,Wait success
1739380583,7a80f08f45b84e3c16d3c647c4aec7e1,PennController,6,0,demo,NULL,Key,5-it would get,PressedKey, ,1739379847995,6318,Wait success
1739380583,7a80f08f45b84e3c16d3c647c4aec7e1,PennController,6,0,demo,NULL,Key,6-easier.,PressedKey, ,1739379848301,6318,Wait success
1739380583,7a80f08f45b84e3c16d3c647c4aec7e1,PennController,6,0,demo,NULL,PennController,3,_Trial_,End,1739379848305,6318,NULL
1739380583,7a80f08f45b84e3c16d3c647c4aec7e1,PennController,7,0,demo2,NULL,PennController,4,_Trial_,Start,1739379848308,6318,NULL
1739380583,7a80f08f45b84e3c16d3c647c4aec7e1,PennController,7,0,demo2,NULL,PennController,4,_Header_,Start,1739379848308,6318,NULL
1739380583,7a80f08f45b84e3c16d3c647c4aec7e1,PennController,7,0,demo2,NULL,PennController,4,_Header_,End,1739379848308,6318,NULL
1739380583,7a80f08f45b84e3c16d3c647c4aec7e1,PennController,7,0,demo2,NULL,Key,test2-start,PressedKey, ,1739379850626,6318,Wait success
1739380583,7a80f08f45b84e3c16d3c647c4aec7e1,PennController,7,0,demo2,NULL,Key,0-Sophia and Daniel joined a trivia night at a pub.,PressedKey, ,1739379852694,6318,Wait success
1739380583,7a80f08f45b84e3c16d3c647c4aec7e1,PennController,7,0,demo2,NULL,Key,1-Their team lost by one point because Daniel second-guessed an answer.,PressedKey, ,1739379859160,6318,Wait success
1739380583,7a80f08f45b84e3c16d3c647c4aec7e1,PennController,7,0,demo2,NULL,Key,2-Sophia told him:,PressedKey, ,1739379860017,6318,Wait success
1739380583,7a80f08f45b84e3c16d3c647c4aec7e1,PennController,7,0,demo2,NULL,Key,3-"You should,PressedKey, ,1739379860544,6318,Wait success
1739380583,7a80f08f45b84e3c16d3c647c4aec7e1,PennController,7,0,demo2,NULL,Key,4-trust,PressedKey, ,1739379860947,6318,Wait success
1739380583,7a80f08f45b84e3c16d3c647c4aec7e1,PennController,7,0,demo2,NULL,Key,5-your instincts,PressedKey, ,1739379861201,6318,Wait success
1739380583,7a80f08f45b84e3c16d3c647c4aec7e1,PennController,7,0,demo2,NULL,Key,6-next time.",PressedKey, ,1739379861646,6318,Wait success
1739380583,7a80f08f45b84e3c16d3c647c4aec7e1,PennController,7,0,demo2,NULL,PennController,4,_Trial_,End,1739379864870,6318,NULL
1739380583,7a80f08f45b84e3c16d3c647c4aec7e1,PennController,8,0,continuation-message,NULL,PennController,5,_Trial_,Start,1739379864872,6318,NULL
1739380583,7a80f08f45b84e3c16d3c647c4aec7e1,PennController,8,0,continuation-message,NULL,PennController,5,_Header_,Start,1739379864872,6318,NULL
1739380583,7a80f08f45b84e3c16d3c647c4aec7e1,PennController,8,0,continuation-message,NULL,PennController,5,_Header_,End,1739379864872,6318,NULL
1739380583,7a80f08f45b84e3c16d3c647c4aec7e1,PennController,8,0,continuation-message,NULL,PennController,5,_Trial_,End,1739379868128,6318,NULL
# 14. type.
# 15. Comments.
1739380583,7a80f08f45b84e3c16d3c647c4aec7e1,PennController,54,0,filler,NULL,PennController,51,_Trial_,Start,1739379868130,6318,filler_13,NULL
1739380583,7a80f08f45b84e3c16d3c647c4aec7e1,PennController,54,0,filler,NULL,PennController,51,_Header_,Start,1739379868130,6318,filler_13,NULL
1739380583,7a80f08f45b84e3c16d3c647c4aec7e1,PennController,54,0,filler,NULL,PennController,51,_Header_,End,1739379868130,6318,filler_13,NULL
1739380583,7a80f08f45b84e3c16d3c647c4aec7e1,PennController,54,0,filler,NULL,Key,filler_13-start,PressedKey, ,1739379869140,6318,filler_13,Wait success
1739380583,7a80f08f45b84e3c16d3c647c4aec7e1,PennController,54,0,filler,NULL,Key,0-Visiting an antique store%2C Adrian noticed that,PressedKey, ,1739379870167,6318,filler_13,Wait success
1739380583,7a80f08f45b84e3c16d3c647c4aec7e1,PennController,54,0,filler,NULL,Key,1-Clara had accidentally damaged a vase%2C,PressedKey, ,1739379872344,6318,filler_13,Wait success
1739380583,7a80f08f45b84e3c16d3c647c4aec7e1,PennController,54,0,filler,NULL,Key,2-and he said:,PressedKey, ,1739379872868,6318,filler_13,Wait success
1739380583,7a80f08f45b84e3c16d3c647c4aec7e1,PennController,54,0,filler,NULL,Key,3-"You need to,PressedKey, ,1739379873324,6318,filler_13,Wait success
1739380583,7a80f08f45b84e3c16d3c647c4aec7e1,PennController,54,0,filler,NULL,Key,4-be more cautious,PressedKey, ,1739379873731,6318,filler_13,Wait success
1739380583,7a80f08f45b84e3c16d3c647c4aec7e1,PennController,54,0,filler,NULL,Key,5-when handling,PressedKey, ,1739379874090,6318,filler_13,Wait success
1739380583,7a80f08f45b84e3c16d3c647c4aec7e1,PennController,54,0,filler,NULL,Key,6-fragile items.",PressedKey, ,1739379874513,6318,filler_13,Wait success
1739380583,7a80f08f45b84e3c16d3c647c4aec7e1,PennController,54,0,filler,NULL,PennController,51,_Trial_,End,1739379874514,6318,filler_13,NULL
1739380583,7a80f08f45b84e3c16d3c647c4aec7e1,PennController,58,0,filler,NULL,PennController,55,_Trial_,Start,1739379874517,6318,filler_17,NULL
1739380583,7a80f08f45b84e3c16d3c647c4aec7e1,PennController,58,0,filler,NULL,PennController,55,_Header_,Start,1739379874517,6318,filler_17,NULL
1739380583,7a80f08f45b84e3c16d3c647c4aec7e1,PennController,58,0,filler,NULL,PennController,55,_Header_,End,1739379874517,6318,filler_17,NULL
1739380583,7a80f08f45b84e3c16d3c647c4aec7e1,PennController,58,0,filler,NULL,Key,filler_17-start,PressedKey, ,1739379875477,6318,filler_17,Wait success
1739380583,7a80f08f45b84e3c16d3c647c4aec7e1,PennController,58,0,filler,NULL,Key,0-While hiking in the forest%2C,PressedKey, ,1739379876625,6318,filler_17,Wait success
1739380583,7a80f08f45b84e3c16d3c647c4aec7e1,PennController,58,0,filler,NULL,Key,1-Mason noticed that Amber had taken a wrong turn and gotten slightly lost%2C,PressedKey, ,1739379880602,6318,filler_17,Wait success
1739380583,7a80f08f45b84e3c16d3c647c4aec7e1,PennController,58,0,filler,NULL,Key,2-and he said:,PressedKey, ,1739379881289,6318,filler_17,Wait success
1739380583,7a80f08f45b84e3c16d3c647c4aec7e1,PennController,58,0,filler,NULL,Key,3-"You should,PressedKey, ,1739379881738,6318,filler_17,Wait success
1739380583,7a80f08f45b84e3c16d3c647c4aec7e1,PennController,58,0,filler,NULL,Key,4-check the map,PressedKey, ,1739379882125,6318,filler_17,Wait success
1739380583,7a80f08f45b84e3c16d3c647c4aec7e1,PennController,58,0,filler,NULL,Key,5-before venturing,PressedKey, ,1739379882544,6318,filler_17,Wait success
1739380583,7a80f08f45b84e3c16d3c647c4aec7e1,PennController,58,0,filler,NULL,Key,6-off the trail.",PressedKey, ,1739379882876,6318,filler_17,Wait success
1739380583,7a80f08f45b84e3c16d3c647c4aec7e1,PennController,58,0,filler,NULL,PennController,55,_Trial_,End,1739379882877,6318,filler_17,NULL
# 15. group.
# 16. Comments.
1739380583,7a80f08f45b84e3c16d3c647c4aec7e1,PennController,11,0,exp,NULL,PennController,8,_Trial_,Start,1739379882879,6318,babysit_dir_sarc,1,NULL
1739380583,7a80f08f45b84e3c16d3c647c4aec7e1,PennController,11,0,exp,NULL,PennController,8,_Header_,Start,1739379882879,6318,babysit_dir_sarc,1,NULL
1739380583,7a80f08f45b84e3c16d3c647c4aec7e1,PennController,11,0,exp,NULL,PennController,8,_Header_,End,1739379882879,6318,babysit_dir_sarc,1,NULL
1739380583,7a80f08f45b84e3c16d3c647c4aec7e1,PennController,11,0,exp,NULL,Key,babysit_dir_sarc-start,PressedKey, ,1739379884922,6318,babysit_dir_sarc,1,Wait success
1739380583,7a80f08f45b84e3c16d3c647c4aec7e1,PennController,11,0,exp,NULL,Key,0-David and Patricia were raising their young twins.,PressedKey, ,1739379886993,6318,babysit_dir_sarc,1,Wait success
1739380583,7a80f08f45b84e3c16d3c647c4aec7e1,PennController,11,0,exp,NULL,Key,1-While David was struggling to calm the children%2C,PressedKey, ,1739379888779,6318,babysit_dir_sarc,1,Wait success
1739380583,7a80f08f45b84e3c16d3c647c4aec7e1,PennController,11,0,exp,NULL,Key,2-Patricia muttered:,PressedKey, ,1739379889328,6318,babysit_dir_sarc,1,Wait success
1739380583,7a80f08f45b84e3c16d3c647c4aec7e1,PennController,11,0,exp,NULL,Key,3-"My partner's having a,PressedKey, ,1739379889857,6318,babysit_dir_sarc,1,Wait success
1739380583,7a80f08f45b84e3c16d3c647c4aec7e1,PennController,11,0,exp,NULL,Key,4-relaxed,PressedKey, ,1739379890292,6318,babysit_dir_sarc,1,Wait success
1739380583,7a80f08f45b84e3c16d3c647c4aec7e1,PennController,11,0,exp,NULL,Key,5-time,PressedKey, ,1739379890823,6318,babysit_dir_sarc,1,Wait success
1739380583,7a80f08f45b84e3c16d3c647c4aec7e1,PennController,11,0,exp,NULL,Key,6-babysitting the kids,PressedKey, ,1739379891669,6318,babysit_dir_sarc,1,Wait success
1739380583,7a80f08f45b84e3c16d3c647c4aec7e1,PennController,11,0,exp,NULL,Key,7-for the day.",PressedKey, ,1739379892075,6318,babysit_dir_sarc,1,Wait success
1739380583,7a80f08f45b84e3c16d3c647c4aec7e1,PennController,11,0,exp,NULL,PennController,8,_Trial_,End,1739379892077,6318,babysit_dir_sarc,1,NULL
# 15. Comments.
1739380583,7a80f08f45b84e3c16d3c647c4aec7e1,PennController,60,0,filler,NULL,PennController,57,_Trial_,Start,1739379892079,6318,filler_19,NULL
1739380583,7a80f08f45b84e3c16d3c647c4aec7e1,PennController,60,0,filler,NULL,PennController,57,_Header_,Start,1739379892079,6318,filler_19,NULL
1739380583,7a80f08f45b84e3c16d3c647c4aec7e1,PennController,60,0,filler,NULL,PennController,57,_Header_,End,1739379892079,6318,filler_19,NULL
1739380583,7a80f08f45b84e3c16d3c647c4aec7e1,PennController,60,0,filler,NULL,Key,filler_19-start,PressedKey, ,1739379893732,6318,filler_19,Wait success
1739380583,7a80f08f45b84e3c16d3c647c4aec7e1,PennController,60,0,filler,NULL,Key,0-Wesley and Harper visited a science fair.,PressedKey, ,1739379897546,6318,filler_19,Wait success
1739380583,7a80f08f45b84e3c16d3c647c4aec7e1,PennController,60,0,filler,NULL,Key,1-Harper misinterpreted an exhibit and commented wrongly.,PressedKey, ,1739379900009,6318,filler_19,Wait success
1739380583,7a80f08f45b84e3c16d3c647c4aec7e1,PennController,60,0,filler,NULL,Key,2-Wesley remarked that,PressedKey, ,1739379900749,6318,filler_19,Wait success
1739380583,7a80f08f45b84e3c16d3c647c4aec7e1,PennController,60,0,filler,NULL,Key,3-she should,PressedKey, ,1739379901277,6318,filler_19,Wait success
1739380583,7a80f08f45b84e3c16d3c647c4aec7e1,PennController,60,0,filler,NULL,Key,4-read the description,PressedKey, ,1739379901769,6318,filler_19,Wait success
1739380583,7a80f08f45b84e3c16d3c647c4aec7e1,PennController,60,0,filler,NULL,Key,5-more carefully,PressedKey, ,1739379902225,6318,filler_19,Wait success
1739380583,7a80f08f45b84e3c16d3c647c4aec7e1,PennController,60,0,filler,NULL,Key,6-next time. ,PressedKey, ,1739379902751,6318,filler_19,Wait success
1739380583,7a80f08f45b84e3c16d3c647c4aec7e1,PennController,60,0,filler,NULL,PennController,57,_Trial_,End,1739379902752,6318,filler_19,NULL
# 15. group.
# 16. Comments.
1739380583,7a80f08f45b84e3c16d3c647c4aec7e1,PennController,24,0,exp,NULL,PennController,21,_Trial_,Start,1739379902754,6318,cake_ind_lit,1,NULL
1739380583,7a80f08f45b84e3c16d3c647c4aec7e1,PennController,24,0,exp,NULL,PennController,21,_Header_,Start,1739379902754,6318,cake_ind_lit,1,NULL
1739380583,7a80f08f45b84e3c16d3c647c4aec7e1,PennController,24,0,exp,NULL,PennController,21,_Header_,End,1739379902754,6318,cake_ind_lit,1,NULL
1739380583,7a80f08f45b84e3c16d3c647c4aec7e1,PennController,24,0,exp,NULL,Key,cake_ind_lit-start,PressedKey, ,1739379904781,6318,cake_ind_lit,1,Wait success
1739380583,7a80f08f45b84e3c16d3c647c4aec7e1,PennController,24,0,exp,NULL,Key,0-Debra promised to buy a cake for Mark’s birthday party.,PressedKey, ,1739379906553,6318,cake_ind_lit,1,Wait success
1739380583,7a80f08f45b84e3c16d3c647c4aec7e1,PennController,24,0,exp,NULL,Key,1-Unfortunately%2C Debra forgot to book in advance and only a very small cake was left.,PressedKey, ,1739379909123,6318,cake_ind_lit,1,Wait success
1739380583,7a80f08f45b84e3c16d3c647c4aec7e1,PennController,24,0,exp,NULL,Key,2-Mark complained that,PressedKey, ,1739379909615,6318,cake_ind_lit,1,Wait success
1739380583,7a80f08f45b84e3c16d3c647c4aec7e1,PennController,24,0,exp,NULL,Key,3-it was a,PressedKey, ,1739379910050,6318,cake_ind_lit,1,Wait success
1739380583,7a80f08f45b84e3c16d3c647c4aec7e1,PennController,24,0,exp,NULL,Key,4-tiny,PressedKey, ,1739379910429,6318,cake_ind_lit,1,Wait success
1739380583,7a80f08f45b84e3c16d3c647c4aec7e1,PennController,24,0,exp,NULL,Key,5-cake.,PressedKey, ,1739379910784,6318,cake_ind_lit,1,Wait success
# 16. Whether or not answer was correct (NULL if N/A).
# 17. Time taken to answer..
# 18. Comments.
1739380583,7a80f08f45b84e3c16d3c647c4aec7e1,PennController,24,0,exp,NULL,Controller-Question,Question,Did Debra attend a birthday party?,Yes,1739379916083,6318,cake_ind_lit,1,1,5296,Any addtional parameters were appended as additional columns
# 16. Comments.
1739380583,7a80f08f45b84e3c16d3c647c4aec7e1,PennController,24,0,exp,NULL,PennController,21,_Trial_,End,1739379916085,6318,cake_ind_lit,1,NULL
# 15. Comments.
1739380583,7a80f08f45b84e3c16d3c647c4aec7e1,PennController,68,0,filler,NULL,PennController,65,_Trial_,Start,1739379916087,6318,filler_27,NULL
1739380583,7a80f08f45b84e3c16d3c647c4aec7e1,PennController,68,0,filler,NULL,PennController,65,_Header_,Start,1739379916087,6318,filler_27,NULL
1739380583,7a80f08f45b84e3c16d3c647c4aec7e1,PennController,68,0,filler,NULL,PennController,65,_Header_,End,1739379916087,6318,filler_27,NULL
1739380583,7a80f08f45b84e3c16d3c647c4aec7e1,PennController,68,0,filler,NULL,Key,filler_27-start,PressedKey, ,1739379918417,6318,filler_27,Wait success
1739380583,7a80f08f45b84e3c16d3c647c4aec7e1,PennController,68,0,filler,NULL,Key,0-Trevor and Layla visited a new café.,PressedKey, ,1739379920665,6318,filler_27,Wait success
1739380583,7a80f08f45b84e3c16d3c647c4aec7e1,PennController,68,0,filler,NULL,Key,1-Layla spilled her coffee on the table.,PressedKey, ,1739379921887,6318,filler_27,Wait success
1739380583,7a80f08f45b84e3c16d3c647c4aec7e1,PennController,68,0,filler,NULL,Key,2-Trevor remarked that,PressedKey, ,1739379922585,6318,filler_27,Wait success
1739380583,7a80f08f45b84e3c16d3c647c4aec7e1,PennController,68,0,filler,NULL,Key,3-she should be,PressedKey, ,1739379923145,6318,filler_27,Wait success
1739380583,7a80f08f45b84e3c16d3c647c4aec7e1,PennController,68,0,filler,NULL,Key,4-more careful,PressedKey, ,1739379923611,6318,filler_27,Wait success
1739380583,7a80f08f45b84e3c16d3c647c4aec7e1,PennController,68,0,filler,NULL,Key,5-with hot drinks,PressedKey, ,1739379924054,6318,filler_27,Wait success
1739380583,7a80f08f45b84e3c16d3c647c4aec7e1,PennController,68,0,filler,NULL,Key,6-to avoid spills.,PressedKey, ,1739379924528,6318,filler_27,Wait success
1739380583,7a80f08f45b84e3c16d3c647c4aec7e1,PennController,68,0,filler,NULL,Key,7-,PressedKey, ,1739379925813,6318,filler_27,Wait success
1739380583,7a80f08f45b84e3c16d3c647c4aec7e1,PennController,68,0,filler,NULL,PennController,65,_Trial_,End,1739379925815,6318,filler_27,NULL
1739380583,7a80f08f45b84e3c16d3c647c4aec7e1,PennController,61,0,filler,NULL,PennController,58,_Trial_,Start,1739379925817,6318,filler_20,NULL
1739380583,7a80f08f45b84e3c16d3c647c4aec7e1,PennController,61,0,filler,NULL,PennController,58,_Header_,Start,1739379925817,6318,filler_20,NULL
1739380583,7a80f08f45b84e3c16d3c647c4aec7e1,PennController,61,0,filler,NULL,PennController,58,_Header_,End,1739379925817,6318,filler_20,NULL
1739380583,7a80f08f45b84e3c16d3c647c4aec7e1,PennController,61,0,filler,NULL,Key,filler_20-start,PressedKey, ,1739379927157,6318,filler_20,Wait success
1739380583,7a80f08f45b84e3c16d3c647c4aec7e1,PennController,61,0,filler,NULL,Key,0-During a dance class%2C Aria accidentally stepped on Julian's foot%2C,PressedKey, ,1739379930510,6318,filler_20,Wait success
1739380583,7a80f08f45b84e3c16d3c647c4aec7e1,PennController,61,0,filler,NULL,Key,1-prompting him to remark that,PressedKey, ,1739379931983,6318,filler_20,Wait success
1739380583,7a80f08f45b84e3c16d3c647c4aec7e1,PennController,61,0,filler,NULL,Key,2-she should be,PressedKey, ,1739379932527,6318,filler_20,Wait success
1739380583,7a80f08f45b84e3c16d3c647c4aec7e1,PennController,61,0,filler,NULL,Key,3-more attentive,PressedKey, ,1739379933012,6318,filler_20,Wait success
1739380583,7a80f08f45b84e3c16d3c647c4aec7e1,PennController,61,0,filler,NULL,Key,4-to her partner's,PressedKey, ,1739379933565,6318,filler_20,Wait success
1739380583,7a80f08f45b84e3c16d3c647c4aec7e1,PennController,61,0,filler,NULL,Key,5-movements.,PressedKey, ,1739379937002,6318,filler_20,Wait success
1739380583,7a80f08f45b84e3c16d3c647c4aec7e1,PennController,61,0,filler,NULL,PennController,58,_Trial_,End,1739379937004,6318,filler_20,NULL
# 15. group.
# 16. Comments.
1739380583,7a80f08f45b84e3c16d3c647c4aec7e1,PennController,20,0,exp,NULL,PennController,17,_Trial_,Start,1739379937005,6318,messy_ind_lit,1,NULL
1739380583,7a80f08f45b84e3c16d3c647c4aec7e1,PennController,20,0,exp,NULL,PennController,17,_Header_,Start,1739379937005,6318,messy_ind_lit,1,NULL
1739380583,7a80f08f45b84e3c16d3c647c4aec7e1,PennController,20,0,exp,NULL,PennController,17,_Header_,End,1739379937005,6318,messy_ind_lit,1,NULL
1739380583,7a80f08f45b84e3c16d3c647c4aec7e1,PennController,20,0,exp,NULL,Key,messy_ind_lit-start,PressedKey, ,1739379938415,6318,messy_ind_lit,1,Wait success
1739380583,7a80f08f45b84e3c16d3c647c4aec7e1,PennController,20,0,exp,NULL,Key,0-Barbara had invited Christopher over.,PressedKey, ,1739379940104,6318,messy_ind_lit,1,Wait success
1739380583,7a80f08f45b84e3c16d3c647c4aec7e1,PennController,20,0,exp,NULL,Key,1-When Christopher arrived%2C he found the room so messy that there was hardly any space to stand.,PressedKey, ,1739379942953,6318,messy_ind_lit,1,Wait success
1739380583,7a80f08f45b84e3c16d3c647c4aec7e1,PennController,20,0,exp,NULL,Key,2-Christopher complained that,PressedKey, ,1739379943505,6318,messy_ind_lit,1,Wait success
1739380583,7a80f08f45b84e3c16d3c647c4aec7e1,PennController,20,0,exp,NULL,Key,3-the room was,PressedKey, ,1739379943926,6318,messy_ind_lit,1,Wait success
1739380583,7a80f08f45b84e3c16d3c647c4aec7e1,PennController,20,0,exp,NULL,Key,4-so,PressedKey, ,1739379944225,6318,messy_ind_lit,1,Wait success
1739380583,7a80f08f45b84e3c16d3c647c4aec7e1,PennController,20,0,exp,NULL,Key,5-untidy%2C,PressedKey, ,1739379944555,6318,messy_ind_lit,1,Wait success
1739380583,7a80f08f45b84e3c16d3c647c4aec7e1,PennController,20,0,exp,NULL,Key,6-prompting Barbara,PressedKey, ,1739379945043,6318,messy_ind_lit,1,Wait success
1739380583,7a80f08f45b84e3c16d3c647c4aec7e1,PennController,20,0,exp,NULL,Key,7-to start clearing up,PressedKey, ,1739379945522,6318,messy_ind_lit,1,Wait success
1739380583,7a80f08f45b84e3c16d3c647c4aec7e1,PennController,20,0,exp,NULL,Key,8-right away.,PressedKey, ,1739379945868,6318,messy_ind_lit,1,Wait success
1739380583,7a80f08f45b84e3c16d3c647c4aec7e1,PennController,20,0,exp,NULL,PennController,17,_Trial_,End,1739379945870,6318,messy_ind_lit,1,NULL
# 15. Comments.
1739380583,7a80f08f45b84e3c16d3c647c4aec7e1,PennController,44,0,filler,NULL,PennController,41,_Trial_,Start,1739379945872,6318,filler_03,NULL
1739380583,7a80f08f45b84e3c16d3c647c4aec7e1,PennController,44,0,filler,NULL,PennController,41,_Header_,Start,1739379945872,6318,filler_03,NULL
1739380583,7a80f08f45b84e3c16d3c647c4aec7e1,PennController,44,0,filler,NULL,PennController,41,_Header_,End,1739379945872,6318,filler_03,NULL
1739380583,7a80f08f45b84e3c16d3c647c4aec7e1,PennController,44,0,filler,NULL,Key,filler_03-start,PressedKey, ,1739379946754,6318,filler_03,Wait success
1739380583,7a80f08f45b84e3c16d3c647c4aec7e1,PennController,44,0,filler,NULL,Key,0-Oliver and Grace attended a cooking class.,PressedKey, ,1739379948559,6318,filler_03,Wait success
1739380583,7a80f08f45b84e3c16d3c647c4aec7e1,PennController,44,0,filler,NULL,Key,1-During the session%2C Grace accidentally overcooked the soup.,PressedKey, ,1739379950176,6318,filler_03,Wait success
1739380583,7a80f08f45b84e3c16d3c647c4aec7e1,PennController,44,0,filler,NULL,Key,2-Oliver  suggested,PressedKey, ,1739379950700,6318,filler_03,Wait success
1739380583,7a80f08f45b84e3c16d3c647c4aec7e1,PennController,44,0,filler,NULL,Key,3-adjusting the heat,PressedKey, ,1739379951168,6318,filler_03,Wait success
1739380583,7a80f08f45b84e3c16d3c647c4aec7e1,PennController,44,0,filler,NULL,Key,4-next time.,PressedKey, ,1739379951550,6318,filler_03,Wait success
# 15. Whether or not answer was correct (NULL if N/A).
# 16. Time taken to answer..
# 17. Comments.
1739380583,7a80f08f45b84e3c16d3c647c4aec7e1,PennController,44,0,filler,NULL,Controller-Question,Question,Did Oliver suggest adjusting the heat after the soup was overcooked?,Yes,1739379954251,6318,filler_03,1,2699,Any addtional parameters were appended as additional columns
# 15. Comments.
1739380583,7a80f08f45b84e3c16d3c647c4aec7e1,PennController,44,0,filler,NULL,PennController,41,_Trial_,End,1739379954253,6318,filler_03,NULL
1739380583,7a80f08f45b84e3c16d3c647c4aec7e1,PennController,83,0,filler,NULL,PennController,80,_Trial_,Start,1739379954255,6318,filler_42,NULL
1739380583,7a80f08f45b84e3c16d3c647c4aec7e1,PennController,83,0,filler,NULL,PennController,80,_Header_,Start,1739379954255,6318,filler_42,NULL
1739380583,7a80f08f45b84e3c16d3c647c4aec7e1,PennController,83,0,filler,NULL,PennController,80,_Header_,End,1739379954255,6318,filler_42,NULL
1739380583,7a80f08f45b84e3c16d3c647c4aec7e1,PennController,83,0,filler,NULL,Key,filler_42-start,PressedKey, ,1739379958891,6318,filler_42,Wait success
1739380583,7a80f08f45b84e3c16d3c647c4aec7e1,PennController,83,0,filler,NULL,Key,0-At a cooking class%2C Preston noticed that Lydia had burned the dish she was preparing%2C,PressedKey, ,1739379963012,6318,filler_42,Wait success
1739380583,7a80f08f45b84e3c16d3c647c4aec7e1,PennController,83,0,filler,NULL,Key,1-and he said:,PressedKey, ,1739379963632,6318,filler_42,Wait success
1739380583,7a80f08f45b84e3c16d3c647c4aec7e1,PennController,83,0,filler,NULL,Key,2-"It might be useful,PressedKey, ,1739379964076,6318,filler_42,Wait success
1739380583,7a80f08f45b84e3c16d3c647c4aec7e1,PennController,83,0,filler,NULL,Key,3-to adjust,PressedKey, ,1739379964427,6318,filler_42,Wait success
1739380583,7a80f08f45b84e3c16d3c647c4aec7e1,PennController,83,0,filler,NULL,Key,4-the cooking time,PressedKey, ,1739379964804,6318,filler_42,Wait success
1739380583,7a80f08f45b84e3c16d3c647c4aec7e1,PennController,83,0,filler,NULL,Key,5-next time.",PressedKey, ,1739379965201,6318,filler_42,Wait success
1739380583,7a80f08f45b84e3c16d3c647c4aec7e1,PennController,83,0,filler,NULL,PennController,80,_Trial_,End,1739379965202,6318,filler_42,NULL
# 15. group.
# 16. Comments.
1739380583,7a80f08f45b84e3c16d3c647c4aec7e1,PennController,18,0,exp,NULL,PennController,15,_Trial_,Start,1739379965203,6318,film_dir_lit,1,NULL
1739380583,7a80f08f45b84e3c16d3c647c4aec7e1,PennController,18,0,exp,NULL,PennController,15,_Header_,Start,1739379965203,6318,film_dir_lit,1,NULL
1739380583,7a80f08f45b84e3c16d3c647c4aec7e1,PennController,18,0,exp,NULL,PennController,15,_Header_,End,1739379965203,6318,film_dir_lit,1,NULL
1739380583,7a80f08f45b84e3c16d3c647c4aec7e1,PennController,18,0,exp,NULL,Key,film_dir_lit-start,PressedKey, ,1739379966942,6318,film_dir_lit,1,Wait success
1739380583,7a80f08f45b84e3c16d3c647c4aec7e1,PennController,18,0,exp,NULL,Key,0-Daniel invited Carol to a film screening at the film festival.,PressedKey, ,1739379969477,6318,film_dir_lit,1,Wait success
1739380583,7a80f08f45b84e3c16d3c647c4aec7e1,PennController,18,0,exp,NULL,Key,1-The film turned out to be terrible and they were both disappointed.,PressedKey, ,1739379971400,6318,film_dir_lit,1,Wait success
1739380583,7a80f08f45b84e3c16d3c647c4aec7e1,PennController,18,0,exp,NULL,Key,2-Daniel lamented to Carol:,PressedKey, ,1739379972040,6318,film_dir_lit,1,Wait success
1739380583,7a80f08f45b84e3c16d3c647c4aec7e1,PennController,18,0,exp,NULL,Key,3-"That was a,PressedKey, ,1739379972586,6318,film_dir_lit,1,Wait success
1739380583,7a80f08f45b84e3c16d3c647c4aec7e1,PennController,18,0,exp,NULL,Key,4-dreadful,PressedKey, ,1739379972983,6318,film_dir_lit,1,Wait success
1739380583,7a80f08f45b84e3c16d3c647c4aec7e1,PennController,18,0,exp,NULL,Key,5-film,PressedKey, ,1739379973482,6318,film_dir_lit,1,Wait success
1739380583,7a80f08f45b84e3c16d3c647c4aec7e1,PennController,18,0,exp,NULL,Key,6-to sit through.",PressedKey, ,1739379973903,6318,film_dir_lit,1,Wait success
# 16. Whether or not answer was correct (NULL if N/A).
# 17. Time taken to answer..
# 18. Comments.
1739380583,7a80f08f45b84e3c16d3c647c4aec7e1,PennController,18,0,exp,NULL,Controller-Question,Question,Did the event take place at a film festival?,Yes,1739379976145,6318,film_dir_lit,1,1,2239,Any addtional parameters were appended as additional columns
# 16. Comments.
1739380583,7a80f08f45b84e3c16d3c647c4aec7e1,PennController,18,0,exp,NULL,PennController,15,_Trial_,End,1739379976147,6318,film_dir_lit,1,NULL
# 15. Comments.
1739380583,7a80f08f45b84e3c16d3c647c4aec7e1,PennController,52,0,filler,NULL,PennController,49,_Trial_,Start,1739379976148,6318,filler_11,NULL
1739380583,7a80f08f45b84e3c16d3c647c4aec7e1,PennController,52,0,filler,NULL,PennController,49,_Header_,Start,1739379976148,6318,filler_11,NULL
1739380583,7a80f08f45b84e3c16d3c647c4aec7e1,PennController,52,0,filler,NULL,PennController,49,_Header_,End,1739379976148,6318,filler_11,NULL
1739380583,7a80f08f45b84e3c16d3c647c4aec7e1,PennController,52,0,filler,NULL,Key,filler_11-start,PressedKey, ,1739379979824,6318,filler_11,Wait success
1739380583,7a80f08f45b84e3c16d3c647c4aec7e1,PennController,52,0,filler,NULL,Key,0-During a pottery workshop%2C Nina's pot broke while she was moulding it%2C,PressedKey, ,1739379984287,6318,filler_11,Wait success
1739380583,7a80f08f45b84e3c16d3c647c4aec7e1,PennController,52,0,filler,NULL,Key,1-prompting Marcus to remark that%2C,PressedKey, ,1739379985431,6318,filler_11,Wait success
1739380583,7a80f08f45b84e3c16d3c647c4aec7e1,PennController,52,0,filler,NULL,Key,2-although,PressedKey, ,1739379985939,6318,filler_11,Wait success
1739380583,7a80f08f45b84e3c16d3c647c4aec7e1,PennController,52,0,filler,NULL,Key,3-accidents happen%2C,PressedKey, ,1739379986375,6318,filler_11,Wait success
1739380583,7a80f08f45b84e3c16d3c647c4aec7e1,PennController,52,0,filler,NULL,Key,4-she should,PressedKey, ,1739379986908,6318,filler_11,Wait success
1739380583,7a80f08f45b84e3c16d3c647c4aec7e1,PennController,52,0,filler,NULL,Key,5-try to,PressedKey, ,1739379987393,6318,filler_11,Wait success
1739380583,7a80f08f45b84e3c16d3c647c4aec7e1,PennController,52,0,filler,NULL,Key,6-handle the clay,PressedKey, ,1739379987763,6318,filler_11,Wait success
1739380583,7a80f08f45b84e3c16d3c647c4aec7e1,PennController,52,0,filler,NULL,Key,7-with more care.,PressedKey, ,1739379988212,6318,filler_11,Wait success
# 15. Whether or not answer was correct (NULL if N/A).
# 16. Time taken to answer..
# 17. Comments.
1739380583,7a80f08f45b84e3c16d3c647c4aec7e1,PennController,52,0,filler,NULL,Controller-Question,Question,Did Nina’s pot stay intact?,No,1739379992375,6318,filler_11,0,4161,Any addtional parameters were appended as additional columns
# 15. Comments.
1739380583,7a80f08f45b84e3c16d3c647c4aec7e1,PennController,52,0,filler,NULL,PennController,49,_Trial_,End,1739379992377,6318,filler_11,NULL
# 15. group.
# 16. Comments.
1739380583,7a80f08f45b84e3c16d3c647c4aec7e1,PennController,16,0,exp,NULL,PennController,13,_Trial_,Start,1739379992378,6318,spelling_ind_lit,1,NULL
1739380583,7a80f08f45b84e3c16d3c647c4aec7e1,PennController,16,0,exp,NULL,PennController,13,_Header_,Start,1739379992378,6318,spelling_ind_lit,1,NULL
1739380583,7a80f08f45b84e3c16d3c647c4aec7e1,PennController,16,0,exp,NULL,PennController,13,_Header_,End,1739379992378,6318,spelling_ind_lit,1,NULL
1739380583,7a80f08f45b84e3c16d3c647c4aec7e1,PennController,16,0,exp,NULL,Key,spelling_ind_lit-start,PressedKey, ,1739379993339,6318,spelling_ind_lit,1,Wait success
1739380583,7a80f08f45b84e3c16d3c647c4aec7e1,PennController,16,0,exp,NULL,Key,0-Joseph and Donna worked together on a group assignment.,PressedKey, ,1739379997159,6318,spelling_ind_lit,1,Wait success
1739380583,7a80f08f45b84e3c16d3c647c4aec7e1,PennController,16,0,exp,NULL,Key,1-Joseph pointed out the many spelling mistakes in Donna's part,PressedKey, ,1739379999765,6318,spelling_ind_lit,1,Wait success
1739380583,7a80f08f45b84e3c16d3c647c4aec7e1,PennController,16,0,exp,NULL,Key,2-and said that,PressedKey, ,1739380000372,6318,spelling_ind_lit,1,Wait success
1739380583,7a80f08f45b84e3c16d3c647c4aec7e1,PennController,16,0,exp,NULL,Key,3-she had done it,PressedKey, ,1739380000797,6318,spelling_ind_lit,1,Wait success
1739380583,7a80f08f45b84e3c16d3c647c4aec7e1,PennController,16,0,exp,NULL,Key,4-so,PressedKey, ,1739380001242,6318,spelling_ind_lit,1,Wait success
1739380583,7a80f08f45b84e3c16d3c647c4aec7e1,PennController,16,0,exp,NULL,Key,5-carelessly.,PressedKey, ,1739380001647,6318,spelling_ind_lit,1,Wait success
1739380583,7a80f08f45b84e3c16d3c647c4aec7e1,PennController,16,0,exp,NULL,Key,6-Donna decided to,PressedKey, ,1739380002200,6318,spelling_ind_lit,1,Wait success
1739380583,7a80f08f45b84e3c16d3c647c4aec7e1,PennController,16,0,exp,NULL,Key,7-look up the spelling online.,PressedKey, ,1739380002671,6318,spelling_ind_lit,1,Wait success
1739380583,7a80f08f45b84e3c16d3c647c4aec7e1,PennController,16,0,exp,NULL,PennController,13,_Trial_,End,1739380002673,6318,spelling_ind_lit,1,NULL
# 15. Comments.
1739380583,7a80f08f45b84e3c16d3c647c4aec7e1,PennController,87,0,filler,NULL,PennController,84,_Trial_,Start,1739380002675,6318,filler_46,NULL
1739380583,7a80f08f45b84e3c16d3c647c4aec7e1,PennController,87,0,filler,NULL,PennController,84,_Header_,Start,1739380002675,6318,filler_46,NULL
1739380583,7a80f08f45b84e3c16d3c647c4aec7e1,PennController,87,0,filler,NULL,PennController,84,_Header_,End,1739380002675,6318,filler_46,NULL
1739380583,7a80f08f45b84e3c16d3c647c4aec7e1,PennController,87,0,filler,NULL,Key,filler_46-start,PressedKey, ,1739380004397,6318,filler_46,Wait success
1739380583,7a80f08f45b84e3c16d3c647c4aec7e1,PennController,87,0,filler,NULL,Key,0-During a theatre performance%2C Elsa sat in the wrong seat%2C,PressedKey, ,1739380006456,6318,filler_46,Wait success
1739380583,7a80f08f45b84e3c16d3c647c4aec7e1,PennController,87,0,filler,NULL,Key,1-prompting Bruce to remark that,PressedKey, ,1739380007175,6318,filler_46,Wait success
1739380583,7a80f08f45b84e3c16d3c647c4aec7e1,PennController,87,0,filler,NULL,Key,2-she should,PressedKey, ,1739380007674,6318,filler_46,Wait success
1739380583,7a80f08f45b84e3c16d3c647c4aec7e1,PennController,87,0,filler,NULL,Key,3-check her ticket,PressedKey, ,1739380008138,6318,filler_46,Wait success
1739380583,7a80f08f45b84e3c16d3c647c4aec7e1,PennController,87,0,filler,NULL,Key,4-to find,PressedKey, ,1739380008564,6318,filler_46,Wait success
1739380583,7a80f08f45b84e3c16d3c647c4aec7e1,PennController,87,0,filler,NULL,Key,5-her correct seat.,PressedKey, ,1739380009010,6318,filler_46,Wait success
1739380583,7a80f08f45b84e3c16d3c647c4aec7e1,PennController,87,0,filler,NULL,PennController,84,_Trial_,End,1739380009012,6318,filler_46,NULL
# 15. group.
# 16. Comments.
1739380583,7a80f08f45b84e3c16d3c647c4aec7e1,PennController,23,0,exp,NULL,PennController,20,_Trial_,Start,1739380009014,6318,kitchen_dir_sarc,1,NULL
1739380583,7a80f08f45b84e3c16d3c647c4aec7e1,PennController,23,0,exp,NULL,PennController,20,_Header_,Start,1739380009014,6318,kitchen_dir_sarc,1,NULL
1739380583,7a80f08f45b84e3c16d3c647c4aec7e1,PennController,23,0,exp,NULL,PennController,20,_Header_,End,1739380009014,6318,kitchen_dir_sarc,1,NULL
1739380583,7a80f08f45b84e3c16d3c647c4aec7e1,PennController,23,0,exp,NULL,Key,kitchen_dir_sarc-start,PressedKey, ,1739380011368,6318,kitchen_dir_sarc,1,Wait success
1739380583,7a80f08f45b84e3c16d3c647c4aec7e1,PennController,23,0,exp,NULL,Key,0-It was late in the evening and Paul was trying to cook dinner.,PressedKey, ,1739380013059,6318,kitchen_dir_sarc,1,Wait success
1739380583,7a80f08f45b84e3c16d3c647c4aec7e1,PennController,23,0,exp,NULL,Key,1-Cynthia came over to help but unintentionally broke Paul's favourite plate.,PressedKey, ,1739380014921,6318,kitchen_dir_sarc,1,Wait success
1739380583,7a80f08f45b84e3c16d3c647c4aec7e1,PennController,23,0,exp,NULL,Key,2-Paul cried out:,PressedKey, ,1739380015455,6318,kitchen_dir_sarc,1,Wait success
1739380583,7a80f08f45b84e3c16d3c647c4aec7e1,PennController,23,0,exp,NULL,Key,3-"Your help is,PressedKey, ,1739380015918,6318,kitchen_dir_sarc,1,Wait success
1739380583,7a80f08f45b84e3c16d3c647c4aec7e1,PennController,23,0,exp,NULL,Key,4-priceless!,PressedKey, ,1739380016264,6318,kitchen_dir_sarc,1,Wait success
1739380583,7a80f08f45b84e3c16d3c647c4aec7e1,PennController,23,0,exp,NULL,Key,5-Please,PressedKey, ,1739380016662,6318,kitchen_dir_sarc,1,Wait success
1739380583,7a80f08f45b84e3c16d3c647c4aec7e1,PennController,23,0,exp,NULL,Key,6-go away.",PressedKey, ,1739380017067,6318,kitchen_dir_sarc,1,Wait success
1739380583,7a80f08f45b84e3c16d3c647c4aec7e1,PennController,23,0,exp,NULL,PennController,20,_Trial_,End,1739380017068,6318,kitchen_dir_sarc,1,NULL
# 15. Comments.
1739380583,7a80f08f45b84e3c16d3c647c4aec7e1,PennController,82,0,filler,NULL,PennController,79,_Trial_,Start,1739380017069,6318,filler_41,NULL
1739380583,7a80f08f45b84e3c16d3c647c4aec7e1,PennController,82,0,filler,NULL,PennController,79,_Header_,Start,1739380017069,6318,filler_41,NULL
1739380583,7a80f08f45b84e3c16d3c647c4aec7e1,PennController,82,0,filler,NULL,PennController,79,_Header_,End,1739380017069,6318,filler_41,NULL
1739380583,7a80f08f45b84e3c16d3c647c4aec7e1,PennController,82,0,filler,NULL,Key,filler_41-start,PressedKey, ,1739380018127,6318,filler_41,Wait success
1739380583,7a80f08f45b84e3c16d3c647c4aec7e1,PennController,82,0,filler,NULL,Key,0-Lawrence and Talia attended a workshop on crafts.,PressedKey, ,1739380020547,6318,filler_41,Wait success
1739380583,7a80f08f45b84e3c16d3c647c4aec7e1,PennController,82,0,filler,NULL,Key,1-Talia used the wrong materials for her project.,PressedKey, ,1739380022857,6318,filler_41,Wait success
1739380583,7a80f08f45b84e3c16d3c647c4aec7e1,PennController,82,0,filler,NULL,Key,2-Lawrence said:,PressedKey, ,1739380023423,6318,filler_41,Wait success
1739380583,7a80f08f45b84e3c16d3c647c4aec7e1,PennController,82,0,filler,NULL,Key,3-"You might,PressedKey, ,1739380024174,6318,filler_41,Wait success
1739380583,7a80f08f45b84e3c16d3c647c4aec7e1,PennController,82,0,filler,NULL,Key,4-want to,PressedKey, ,1739380024507,6318,filler_41,Wait success
1739380583,7a80f08f45b84e3c16d3c647c4aec7e1,PennController,82,0,filler,NULL,Key,5-verify,PressedKey, ,1739380024837,6318,filler_41,Wait success
1739380583,7a80f08f45b84e3c16d3c647c4aec7e1,PennController,82,0,filler,NULL,Key,6-the required materials,PressedKey, ,1739380025087,6318,filler_41,Wait success
1739380583,7a80f08f45b84e3c16d3c647c4aec7e1,PennController,82,0,filler,NULL,Key,7-next time.",PressedKey, ,1739380025582,6318,filler_41,Wait success
1739380583,7a80f08f45b84e3c16d3c647c4aec7e1,PennController,82,0,filler,NULL,PennController,79,_Trial_,End,1739380025583,6318,filler_41,NULL
1739380583,7a80f08f45b84e3c16d3c647c4aec7e1,PennController,62,0,filler,NULL,PennController,59,_Trial_,Start,1739380025584,6318,filler_21,NULL
1739380583,7a80f08f45b84e3c16d3c647c4aec7e1,PennController,62,0,filler,NULL,PennController,59,_Header_,Start,1739380025584,6318,filler_21,NULL
1739380583,7a80f08f45b84e3c16d3c647c4aec7e1,PennController,62,0,filler,NULL,PennController,59,_Header_,End,1739380025584,6318,filler_21,NULL
1739380583,7a80f08f45b84e3c16d3c647c4aec7e1,PennController,62,0,filler,NULL,Key,filler_21-start,PressedKey, ,1739380027172,6318,filler_21,Wait success
1739380583,7a80f08f45b84e3c16d3c647c4aec7e1,PennController,62,0,filler,NULL,Key,0-Sebastian and Daphne were at a restaurant.,PressedKey, ,1739380028430,6318,filler_21,Wait success
1739380583,7a80f08f45b84e3c16d3c647c4aec7e1,PennController,62,0,filler,NULL,Key,1-Daphne's order arrived later than expected.,PressedKey, ,1739380030371,6318,filler_21,Wait success
1739380583,7a80f08f45b84e3c16d3c647c4aec7e1,PennController,62,0,filler,NULL,Key,2-Sebastian said:,PressedKey, ,1739380030860,6318,filler_21,Wait success
1739380583,7a80f08f45b84e3c16d3c647c4aec7e1,PennController,62,0,filler,NULL,Key,3-"Next time%2C,PressedKey, ,1739380031410,6318,filler_21,Wait success
1739380583,7a80f08f45b84e3c16d3c647c4aec7e1,PennController,62,0,filler,NULL,Key,4-please,PressedKey, ,1739380031804,6318,filler_21,Wait success
1739380583,7a80f08f45b84e3c16d3c647c4aec7e1,PennController,62,0,filler,NULL,Key,5-ensure the order,PressedKey, ,1739380032279,6318,filler_21,Wait success
1739380583,7a80f08f45b84e3c16d3c647c4aec7e1,PennController,62,0,filler,NULL,Key,6-is confirmed,PressedKey, ,1739380032720,6318,filler_21,Wait success
1739380583,7a80f08f45b84e3c16d3c647c4aec7e1,PennController,62,0,filler,NULL,Key,7-promptly.",PressedKey, ,1739380033132,6318,filler_21,Wait success
1739380583,7a80f08f45b84e3c16d3c647c4aec7e1,PennController,62,0,filler,NULL,PennController,59,_Trial_,End,1739380033134,6318,filler_21,NULL
# 15. group.
# 16. Comments.
1739380583,7a80f08f45b84e3c16d3c647c4aec7e1,PennController,28,0,exp,NULL,PennController,25,_Trial_,Start,1739380033135,6318,friend_ind_lit,1,NULL
1739380583,7a80f08f45b84e3c16d3c647c4aec7e1,PennController,28,0,exp,NULL,PennController,25,_Header_,Start,1739380033136,6318,friend_ind_lit,1,NULL
1739380583,7a80f08f45b84e3c16d3c647c4aec7e1,PennController,28,0,exp,NULL,PennController,25,_Header_,End,1739380033136,6318,friend_ind_lit,1,NULL
1739380583,7a80f08f45b84e3c16d3c647c4aec7e1,PennController,28,0,exp,NULL,Key,friend_ind_lit-start,PressedKey, ,1739380034053,6318,friend_ind_lit,1,Wait success
1739380583,7a80f08f45b84e3c16d3c647c4aec7e1,PennController,28,0,exp,NULL,Key,0-Brian never went out with friends,PressedKey, ,1739380035840,6318,friend_ind_lit,1,Wait success
1739380583,7a80f08f45b84e3c16d3c647c4aec7e1,PennController,28,0,exp,NULL,Key,1-no matter how often they asked him out.,PressedKey, ,1739380037244,6318,friend_ind_lit,1,Wait success
1739380583,7a80f08f45b84e3c16d3c647c4aec7e1,PennController,28,0,exp,NULL,Key,2-One of Brian's friends%2C Betty%2C said that,PressedKey, ,1739380038231,6318,friend_ind_lit,1,Wait success
1739380583,7a80f08f45b84e3c16d3c647c4aec7e1,PennController,28,0,exp,NULL,Key,3-Brian was,PressedKey, ,1739380038732,6318,friend_ind_lit,1,Wait success
1739380583,7a80f08f45b84e3c16d3c647c4aec7e1,PennController,28,0,exp,NULL,Key,4-highly,PressedKey, ,1739380039193,6318,friend_ind_lit,1,Wait success
1739380583,7a80f08f45b84e3c16d3c647c4aec7e1,PennController,28,0,exp,NULL,Key,5-antisocial,PressedKey, ,1739380039895,6318,friend_ind_lit,1,Wait success
1739380583,7a80f08f45b84e3c16d3c647c4aec7e1,PennController,28,0,exp,NULL,Key,6-while trying to,PressedKey, ,1739380040795,6318,friend_ind_lit,1,Wait success
1739380583,7a80f08f45b84e3c16d3c647c4aec7e1,PennController,28,0,exp,NULL,Key,7-ask Brian out,PressedKey, ,1739380041573,6318,friend_ind_lit,1,Wait success
1739380583,7a80f08f45b84e3c16d3c647c4aec7e1,PennController,28,0,exp,NULL,Key,8-again.,PressedKey, ,1739380042134,6318,friend_ind_lit,1,Wait success
# 16. Whether or not answer was correct (NULL if N/A).
# 17. Time taken to answer..
# 18. Comments.
1739380583,7a80f08f45b84e3c16d3c647c4aec7e1,PennController,28,0,exp,NULL,Controller-Question,Question,Does Brian go out with friends regularly? ,No,1739380044307,6318,friend_ind_lit,1,0,2170,Any addtional parameters were appended as additional columns
# 16. Comments.
1739380583,7a80f08f45b84e3c16d3c647c4aec7e1,PennController,28,0,exp,NULL,PennController,25,_Trial_,End,1739380044309,6318,friend_ind_lit,1,NULL
# 15. Comments.
1739380583,7a80f08f45b84e3c16d3c647c4aec7e1,PennController,57,0,filler,NULL,PennController,54,_Trial_,Start,1739380044311,6318,filler_16,NULL
1739380583,7a80f08f45b84e3c16d3c647c4aec7e1,PennController,57,0,filler,NULL,PennController,54,_Header_,Start,1739380044311,6318,filler_16,NULL
1739380583,7a80f08f45b84e3c16d3c647c4aec7e1,PennController,57,0,filler,NULL,PennController,54,_Header_,End,1739380044311,6318,filler_16,NULL
1739380583,7a80f08f45b84e3c16d3c647c4aec7e1,PennController,57,0,filler,NULL,Key,filler_16-start,PressedKey, ,1739380046842,6318,filler_16,Wait success
1739380583,7a80f08f45b84e3c16d3c647c4aec7e1,PennController,57,0,filler,NULL,Key,0-Gavin and Paige attended a lecture.,PressedKey, ,1739380048186,6318,filler_16,Wait success
1739380583,7a80f08f45b84e3c16d3c647c4aec7e1,PennController,57,0,filler,NULL,Key,1-Paige misunderstood a point and asked a redundant question.,PressedKey, ,1739380049841,6318,filler_16,Wait success
1739380583,7a80f08f45b84e3c16d3c647c4aec7e1,PennController,57,0,filler,NULL,Key,2-Gavin said:,PressedKey, ,1739380050409,6318,filler_16,Wait success
1739380583,7a80f08f45b84e3c16d3c647c4aec7e1,PennController,57,0,filler,NULL,Key,3-"It's okay,PressedKey, ,1739380050853,6318,filler_16,Wait success
1739380583,7a80f08f45b84e3c16d3c647c4aec7e1,PennController,57,0,filler,NULL,Key,4-to ask questions%2C,PressedKey, ,1739380051272,6318,filler_16,Wait success
1739380583,7a80f08f45b84e3c16d3c647c4aec7e1,PennController,57,0,filler,NULL,Key,5-but try to,PressedKey, ,1739380051639,6318,filler_16,Wait success
1739380583,7a80f08f45b84e3c16d3c647c4aec7e1,PennController,57,0,filler,NULL,Key,6-listen carefully,PressedKey, ,1739380052026,6318,filler_16,Wait success
1739380583,7a80f08f45b84e3c16d3c647c4aec7e1,PennController,57,0,filler,NULL,Key,7-first.",PressedKey, ,1739380052369,6318,filler_16,Wait success
1739380583,7a80f08f45b84e3c16d3c647c4aec7e1,PennController,57,0,filler,NULL,PennController,54,_Trial_,End,1739380052370,6318,filler_16,NULL
# 15. group.
# 16. Comments.
1739380583,7a80f08f45b84e3c16d3c647c4aec7e1,PennController,29,0,exp,NULL,PennController,26,_Trial_,Start,1739380052372,6318,lecture_ind_sarc,1,NULL
1739380583,7a80f08f45b84e3c16d3c647c4aec7e1,PennController,29,0,exp,NULL,PennController,26,_Header_,Start,1739380052372,6318,lecture_ind_sarc,1,NULL
1739380583,7a80f08f45b84e3c16d3c647c4aec7e1,PennController,29,0,exp,NULL,PennController,26,_Header_,End,1739380052372,6318,lecture_ind_sarc,1,NULL
1739380583,7a80f08f45b84e3c16d3c647c4aec7e1,PennController,29,0,exp,NULL,Key,lecture_ind_sarc-start,PressedKey, ,1739380056824,6318,lecture_ind_sarc,1,Wait success
1739380583,7a80f08f45b84e3c16d3c647c4aec7e1,PennController,29,0,exp,NULL,Key,0-Emily and Ronald had the same lecture together,PressedKey, ,1739380058694,6318,lecture_ind_sarc,1,Wait success
1739380583,7a80f08f45b84e3c16d3c647c4aec7e1,PennController,29,0,exp,NULL,Key,1-and Emily saw Ronald zoning out during the lecture.,PressedKey, ,1739380060835,6318,lecture_ind_sarc,1,Wait success
1739380583,7a80f08f45b84e3c16d3c647c4aec7e1,PennController,29,0,exp,NULL,Key,2-After the lecture%2C,PressedKey, ,1739380061536,6318,lecture_ind_sarc,1,Wait success
1739380583,7a80f08f45b84e3c16d3c647c4aec7e1,PennController,29,0,exp,NULL,Key,3-Emily met Ronald and said that,PressedKey, ,1739380062002,6318,lecture_ind_sarc,1,Wait success
1739380583,7a80f08f45b84e3c16d3c647c4aec7e1,PennController,29,0,exp,NULL,Key,4-Ronald was,PressedKey, ,1739380062744,6318,lecture_ind_sarc,1,Wait success
1739380583,7a80f08f45b84e3c16d3c647c4aec7e1,PennController,29,0,exp,NULL,Key,5-really,PressedKey, ,1739380063140,6318,lecture_ind_sarc,1,Wait success
1739380583,7a80f08f45b84e3c16d3c647c4aec7e1,PennController,29,0,exp,NULL,Key,6-focused,PressedKey, ,1739380063651,6318,lecture_ind_sarc,1,Wait success
1739380583,7a80f08f45b84e3c16d3c647c4aec7e1,PennController,29,0,exp,NULL,Key,7-and the class was,PressedKey, ,1739380064180,6318,lecture_ind_sarc,1,Wait success
1739380583,7a80f08f45b84e3c16d3c647c4aec7e1,PennController,29,0,exp,NULL,Key,8-quite important.,PressedKey, ,1739380064634,6318,lecture_ind_sarc,1,Wait success
# 16. Whether or not answer was correct (NULL if N/A).
# 17. Time taken to answer..
# 18. Comments.
1739380583,7a80f08f45b84e3c16d3c647c4aec7e1,PennController,29,0,exp,NULL,Controller-Question,Question,Did Emily and Ronald go lecture together?,Yes,1739380066717,6318,lecture_ind_sarc,1,1,2081,Any addtional parameters were appended as additional columns
# 16. Comments.
1739380583,7a80f08f45b84e3c16d3c647c4aec7e1,PennController,29,0,exp,NULL,PennController,26,_Trial_,End,1739380066719,6318,lecture_ind_sarc,1,NULL
# 15. Comments.
1739380583,7a80f08f45b84e3c16d3c647c4aec7e1,PennController,55,0,filler,NULL,PennController,52,_Trial_,Start,1739380066721,6318,filler_14,NULL
1739380583,7a80f08f45b84e3c16d3c647c4aec7e1,PennController,55,0,filler,NULL,PennController,52,_Header_,Start,1739380066721,6318,filler_14,NULL
1739380583,7a80f08f45b84e3c16d3c647c4aec7e1,PennController,55,0,filler,NULL,PennController,52,_Header_,End,1739380066721,6318,filler_14,NULL
1739380583,7a80f08f45b84e3c16d3c647c4aec7e1,PennController,55,0,filler,NULL,Key,filler_14-start,PressedKey, ,1739380068051,6318,filler_14,Wait success
1739380583,7a80f08f45b84e3c16d3c647c4aec7e1,PennController,55,0,filler,NULL,Key,0-Ivan and Elena took a painting class.,PressedKey, ,1739380069996,6318,filler_14,Wait success
1739380583,7a80f08f45b84e3c16d3c647c4aec7e1,PennController,55,0,filler,NULL,Key,1-During the class%2C Elena spilled some paint on her canvas.,PressedKey, ,1739380071261,6318,filler_14,Wait success
1739380583,7a80f08f45b84e3c16d3c647c4aec7e1,PennController,55,0,filler,NULL,Key,2-Ivan remarked that,PressedKey, ,1739380071867,6318,filler_14,Wait success
1739380583,7a80f08f45b84e3c16d3c647c4aec7e1,PennController,55,0,filler,NULL,Key,3-she should try to,PressedKey, ,1739380072294,6318,filler_14,Wait success
1739380583,7a80f08f45b84e3c16d3c647c4aec7e1,PennController,55,0,filler,NULL,Key,4-control,PressedKey, ,1739380072657,6318,filler_14,Wait success
1739380583,7a80f08f45b84e3c16d3c647c4aec7e1,PennController,55,0,filler,NULL,Key,5-her brush strokes,PressedKey, ,1739380073106,6318,filler_14,Wait success
1739380583,7a80f08f45b84e3c16d3c647c4aec7e1,PennController,55,0,filler,NULL,Key,6-more carefully.,PressedKey, ,1739380073477,6318,filler_14,Wait success
1739380583,7a80f08f45b84e3c16d3c647c4aec7e1,PennController,55,0,filler,NULL,PennController,52,_Trial_,End,1739380073479,6318,filler_14,NULL
1739380583,7a80f08f45b84e3c16d3c647c4aec7e1,PennController,75,0,filler,NULL,PennController,72,_Trial_,Start,1739380073480,6318,filler_34,NULL
1739380583,7a80f08f45b84e3c16d3c647c4aec7e1,PennController,75,0,filler,NULL,PennController,72,_Header_,Start,1739380073480,6318,filler_34,NULL
1739380583,7a80f08f45b84e3c16d3c647c4aec7e1,PennController,75,0,filler,NULL,PennController,72,_Header_,End,1739380073480,6318,filler_34,NULL
1739380583,7a80f08f45b84e3c16d3c647c4aec7e1,PennController,75,0,filler,NULL,Key,filler_34-start,PressedKey, ,1739380074450,6318,filler_34,Wait success
1739380583,7a80f08f45b84e3c16d3c647c4aec7e1,PennController,75,0,filler,NULL,Key,0-Philip and Quinn attended a cooking demonstration.,PressedKey, ,1739380077041,6318,filler_34,Wait success
1739380583,7a80f08f45b84e3c16d3c647c4aec7e1,PennController,75,0,filler,NULL,Key,1-Quinn over-seasoned the dish he prepared.,PressedKey, ,1739380079166,6318,filler_34,Wait success
1739380583,7a80f08f45b84e3c16d3c647c4aec7e1,PennController,75,0,filler,NULL,Key,2-Philip remarked that,PressedKey, ,1739380079792,6318,filler_34,Wait success
1739380583,7a80f08f45b84e3c16d3c647c4aec7e1,PennController,75,0,filler,NULL,Key,3-he might,PressedKey, ,1739380080375,6318,filler_34,Wait success
1739380583,7a80f08f45b84e3c16d3c647c4aec7e1,PennController,75,0,filler,NULL,Key,4-want to,PressedKey, ,1739380080826,6318,filler_34,Wait success
1739380583,7a80f08f45b84e3c16d3c647c4aec7e1,PennController,75,0,filler,NULL,Key,5-adjust the seasoning,PressedKey, ,1739380081352,6318,filler_34,Wait success
1739380583,7a80f08f45b84e3c16d3c647c4aec7e1,PennController,75,0,filler,NULL,Key,6-in his recipe.,PressedKey, ,1739380082045,6318,filler_34,Wait success
1739380583,7a80f08f45b84e3c16d3c647c4aec7e1,PennController,75,0,filler,NULL,PennController,72,_Trial_,End,1739380082046,6318,filler_34,NULL
# 15. group.
# 16. Comments.
1739380583,7a80f08f45b84e3c16d3c647c4aec7e1,PennController,19,0,exp,NULL,PennController,16,_Trial_,Start,1739380082048,6318,restaurant_dir_sarc,1,NULL
1739380583,7a80f08f45b84e3c16d3c647c4aec7e1,PennController,19,0,exp,NULL,PennController,16,_Header_,Start,1739380082048,6318,restaurant_dir_sarc,1,NULL
1739380583,7a80f08f45b84e3c16d3c647c4aec7e1,PennController,19,0,exp,NULL,PennController,16,_Header_,End,1739380082048,6318,restaurant_dir_sarc,1,NULL
1739380583,7a80f08f45b84e3c16d3c647c4aec7e1,PennController,19,0,exp,NULL,Key,restaurant_dir_sarc-start,PressedKey, ,1739380083383,6318,restaurant_dir_sarc,1,Wait success
1739380583,7a80f08f45b84e3c16d3c647c4aec7e1,PennController,19,0,exp,NULL,Key,0-Kathleen invited Matthew to a famous restaurant for dinner and recommended that the cooking was great.,PressedKey, ,1739380088534,6318,restaurant_dir_sarc,1,Wait success
1739380583,7a80f08f45b84e3c16d3c647c4aec7e1,PennController,19,0,exp,NULL,Key,1-The meal tasted terrible.,PressedKey, ,1739380089163,6318,restaurant_dir_sarc,1,Wait success
1739380583,7a80f08f45b84e3c16d3c647c4aec7e1,PennController,19,0,exp,NULL,Key,2-Matthew said:,PressedKey, ,1739380089737,6318,restaurant_dir_sarc,1,Wait success
1739380583,7a80f08f45b84e3c16d3c647c4aec7e1,PennController,19,0,exp,NULL,Key,3-"The food is,PressedKey, ,1739380090230,6318,restaurant_dir_sarc,1,Wait success
1739380583,7a80f08f45b84e3c16d3c647c4aec7e1,PennController,19,0,exp,NULL,Key,4-delicious,PressedKey, ,1739380090824,6318,restaurant_dir_sarc,1,Wait success
1739380583,7a80f08f45b84e3c16d3c647c4aec7e1,PennController,19,0,exp,NULL,Key,5-and I want to leave." Kathleen nodded,PressedKey, ,1739380091264,6318,restaurant_dir_sarc,1,Wait success
1739380583,7a80f08f45b84e3c16d3c647c4aec7e1,PennController,19,0,exp,NULL,Key,6-in silent agreement.,PressedKey, ,1739380092586,6318,restaurant_dir_sarc,1,Wait success
# 16. Whether or not answer was correct (NULL if N/A).
# 17. Time taken to answer..
# 18. Comments.
1739380583,7a80f08f45b84e3c16d3c647c4aec7e1,PennController,19,0,exp,NULL,Controller-Question,Question,Did the people mentioned go shopping?,No,1739380095020,6318,restaurant_dir_sarc,1,0,2431,Any addtional parameters were appended as additional columns
# 16. Comments.
1739380583,7a80f08f45b84e3c16d3c647c4aec7e1,PennController,19,0,exp,NULL,PennController,16,_Trial_,End,1739380095022,6318,restaurant_dir_sarc,1,NULL
# 15. Comments.
1739380583,7a80f08f45b84e3c16d3c647c4aec7e1,PennController,45,0,filler,NULL,PennController,42,_Trial_,Start,1739380095023,6318,filler_04,NULL
1739380583,7a80f08f45b84e3c16d3c647c4aec7e1,PennController,45,0,filler,NULL,PennController,42,_Header_,Start,1739380095023,6318,filler_04,NULL
1739380583,7a80f08f45b84e3c16d3c647c4aec7e1,PennController,45,0,filler,NULL,PennController,42,_Header_,End,1739380095023,6318,filler_04,NULL
1739380583,7a80f08f45b84e3c16d3c647c4aec7e1,PennController,45,0,filler,NULL,Key,filler_04-start,PressedKey, ,1739380096712,6318,filler_04,Wait success
1739380583,7a80f08f45b84e3c16d3c647c4aec7e1,PennController,45,0,filler,NULL,Key,0-Henry and Isabella visited a botanical garden.,PressedKey, ,1739380098936,6318,filler_04,Wait success
1739380583,7a80f08f45b84e3c16d3c647c4aec7e1,PennController,45,0,filler,NULL,Key,1-Isabella wandered off the marked path and trampled some flowers.,PressedKey, ,1739380102700,6318,filler_04,Wait success
1739380583,7a80f08f45b84e3c16d3c647c4aec7e1,PennController,45,0,filler,NULL,Key,2-Henry said:,PressedKey, ,1739380103491,6318,filler_04,Wait success
1739380583,7a80f08f45b84e3c16d3c647c4aec7e1,PennController,45,0,filler,NULL,Key,3-"You should,PressedKey, ,1739380104246,6318,filler_04,Wait success
1739380583,7a80f08f45b84e3c16d3c647c4aec7e1,PennController,45,0,filler,NULL,Key,4-follow the designated trails,PressedKey, ,1739380104655,6318,filler_04,Wait success
1739380583,7a80f08f45b84e3c16d3c647c4aec7e1,PennController,45,0,filler,NULL,Key,5-to protect,PressedKey, ,1739380105167,6318,filler_04,Wait success
1739380583,7a80f08f45b84e3c16d3c647c4aec7e1,PennController,45,0,filler,NULL,Key,6-the garden.",PressedKey, ,1739380105564,6318,filler_04,Wait success
# 15. Whether or not answer was correct (NULL if N/A).
# 16. Time taken to answer..
# 17. Comments.
1739380583,7a80f08f45b84e3c16d3c647c4aec7e1,PennController,45,0,filler,NULL,Controller-Question,Question,Did Isabella wander off the marked path in the botanical garden?,Yes,1739380108522,6318,filler_04,1,2957,Any addtional parameters were appended as additional columns
# 15. Comments.
1739380583,7a80f08f45b84e3c16d3c647c4aec7e1,PennController,45,0,filler,NULL,PennController,42,_Trial_,End,1739380108524,6318,filler_04,NULL
1739380583,7a80f08f45b84e3c16d3c647c4aec7e1,PennController,80,0,filler,NULL,PennController,77,_Trial_,Start,1739380108525,6318,filler_39,NULL
1739380583,7a80f08f45b84e3c16d3c647c4aec7e1,PennController,80,0,filler,NULL,PennController,77,_Header_,Start,1739380108525,6318,filler_39,NULL
1739380583,7a80f08f45b84e3c16d3c647c4aec7e1,PennController,80,0,filler,NULL,PennController,77,_Header_,End,1739380108525,6318,filler_39,NULL
1739380583,7a80f08f45b84e3c16d3c647c4aec7e1,PennController,80,0,filler,NULL,Key,filler_39-start,PressedKey, ,1739380111929,6318,filler_39,Wait success
1739380583,7a80f08f45b84e3c16d3c647c4aec7e1,PennController,80,0,filler,NULL,Key,0-At a book reading session%2C Garrett noticed that Miranda had misheard a crucial detail%2C,PressedKey, ,1739380154803,6318,filler_39,Wait success
1739380583,7a80f08f45b84e3c16d3c647c4aec7e1,PennController,80,0,filler,NULL,Key,1-and he said:,PressedKey, ,1739380155607,6318,filler_39,Wait success
1739380583,7a80f08f45b84e3c16d3c647c4aec7e1,PennController,80,0,filler,NULL,Key,2-"It might help,PressedKey, ,1739380156092,6318,filler_39,Wait success
1739380583,7a80f08f45b84e3c16d3c647c4aec7e1,PennController,80,0,filler,NULL,Key,3-to listen more,PressedKey, ,1739380156491,6318,filler_39,Wait success
1739380583,7a80f08f45b84e3c16d3c647c4aec7e1,PennController,80,0,filler,NULL,Key,4-intently,PressedKey, ,1739380156911,6318,filler_39,Wait success
1739380583,7a80f08f45b84e3c16d3c647c4aec7e1,PennController,80,0,filler,NULL,Key,5-next time.",PressedKey, ,1739380157248,6318,filler_39,Wait success
1739380583,7a80f08f45b84e3c16d3c647c4aec7e1,PennController,80,0,filler,NULL,PennController,77,_Trial_,End,1739380157249,6318,filler_39,NULL
# 15. group.
# 16. Comments.
1739380583,7a80f08f45b84e3c16d3c647c4aec7e1,PennController,14,0,exp,NULL,PennController,11,_Trial_,Start,1739380157251,6318,sleep_dir_lit,1,NULL
1739380583,7a80f08f45b84e3c16d3c647c4aec7e1,PennController,14,0,exp,NULL,PennController,11,_Header_,Start,1739380157251,6318,sleep_dir_lit,1,NULL
1739380583,7a80f08f45b84e3c16d3c647c4aec7e1,PennController,14,0,exp,NULL,PennController,11,_Header_,End,1739380157251,6318,sleep_dir_lit,1,NULL
1739380583,7a80f08f45b84e3c16d3c647c4aec7e1,PennController,14,0,exp,NULL,Key,sleep_dir_lit-start,PressedKey, ,1739380158147,6318,sleep_dir_lit,1,Wait success
1739380583,7a80f08f45b84e3c16d3c647c4aec7e1,PennController,14,0,exp,NULL,Key,0-Karen was working late at night,PressedKey, ,1739380159681,6318,sleep_dir_lit,1,Wait success
1739380583,7a80f08f45b84e3c16d3c647c4aec7e1,PennController,14,0,exp,NULL,Key,1-and struggled to stay awake.,PressedKey, ,1739380160436,6318,sleep_dir_lit,1,Wait success
1739380583,7a80f08f45b84e3c16d3c647c4aec7e1,PennController,14,0,exp,NULL,Key,2-William told Karen:,PressedKey, ,1739380161015,6318,sleep_dir_lit,1,Wait success
1739380583,7a80f08f45b84e3c16d3c647c4aec7e1,PennController,14,0,exp,NULL,Key,3-"Falling asleep at a laptop,PressedKey, ,1739380161497,6318,sleep_dir_lit,1,Wait success
1739380583,7a80f08f45b84e3c16d3c647c4aec7e1,PennController,14,0,exp,NULL,Key,4-is always,PressedKey, ,1739380162183,6318,sleep_dir_lit,1,Wait success
1739380583,7a80f08f45b84e3c16d3c647c4aec7e1,PennController,14,0,exp,NULL,Key,5-awful.",PressedKey, ,1739380162624,6318,sleep_dir_lit,1,Wait success
1739380583,7a80f08f45b84e3c16d3c647c4aec7e1,PennController,14,0,exp,NULL,Key,6-Karen decided to,PressedKey, ,1739380163193,6318,sleep_dir_lit,1,Wait success
1739380583,7a80f08f45b84e3c16d3c647c4aec7e1,PennController,14,0,exp,NULL,Key,7-head to bed.,PressedKey, ,1739380163625,6318,sleep_dir_lit,1,Wait success
1739380583,7a80f08f45b84e3c16d3c647c4aec7e1,PennController,14,0,exp,NULL,PennController,11,_Trial_,End,1739380163627,6318,sleep_dir_lit,1,NULL
# 15. Comments.
1739380583,7a80f08f45b84e3c16d3c647c4aec7e1,PennController,84,0,filler,NULL,PennController,81,_Trial_,Start,1739380163629,6318,filler_43,NULL
1739380583,7a80f08f45b84e3c16d3c647c4aec7e1,PennController,84,0,filler,NULL,PennController,81,_Header_,Start,1739380163629,6318,filler_43,NULL
1739380583,7a80f08f45b84e3c16d3c647c4aec7e1,PennController,84,0,filler,NULL,PennController,81,_Header_,End,1739380163629,6318,filler_43,NULL
1739380583,7a80f08f45b84e3c16d3c647c4aec7e1,PennController,84,0,filler,NULL,Key,filler_43-start,PressedKey, ,1739380164568,6318,filler_43,Wait success
1739380583,7a80f08f45b84e3c16d3c647c4aec7e1,PennController,84,0,filler,NULL,Key,0-Fabian and Erin visited a new art exhibit.,PressedKey, ,1739380166801,6318,filler_43,Wait success
1739380583,7a80f08f45b84e3c16d3c647c4aec7e1,PennController,84,0,filler,NULL,Key,1-Erin misplaced a brochure during the tour.,PressedKey, ,1739380171908,6318,filler_43,Wait success
1739380583,7a80f08f45b84e3c16d3c647c4aec7e1,PennController,84,0,filler,NULL,Key,2-Fabian remarked that,PressedKey, ,1739380173002,6318,filler_43,Wait success
1739380583,7a80f08f45b84e3c16d3c647c4aec7e1,PennController,84,0,filler,NULL,Key,3-she should,PressedKey, ,1739380173369,6318,filler_43,Wait success
1739380583,7a80f08f45b84e3c16d3c647c4aec7e1,PennController,84,0,filler,NULL,Key,4-keep track of,PressedKey, ,1739380173759,6318,filler_43,Wait success
1739380583,7a80f08f45b84e3c16d3c647c4aec7e1,PennController,84,0,filler,NULL,Key,5-the materials,PressedKey, ,1739380174119,6318,filler_43,Wait success
1739380583,7a80f08f45b84e3c16d3c647c4aec7e1,PennController,84,0,filler,NULL,Key,6-provided.,PressedKey, ,1739380174501,6318,filler_43,Wait success
1739380583,7a80f08f45b84e3c16d3c647c4aec7e1,PennController,84,0,filler,NULL,PennController,81,_Trial_,End,1739380174503,6318,filler_43,NULL
# 15. group.
# 16. Comments.
1739380583,7a80f08f45b84e3c16d3c647c4aec7e1,PennController,37,0,exp,NULL,PennController,34,_Trial_,Start,1739380174505,6318,beggar_ind_sarc,1,NULL
1739380583,7a80f08f45b84e3c16d3c647c4aec7e1,PennController,37,0,exp,NULL,PennController,34,_Header_,Start,1739380174505,6318,beggar_ind_sarc,1,NULL
1739380583,7a80f08f45b84e3c16d3c647c4aec7e1,PennController,37,0,exp,NULL,PennController,34,_Header_,End,1739380174505,6318,beggar_ind_sarc,1,NULL
1739380583,7a80f08f45b84e3c16d3c647c4aec7e1,PennController,37,0,exp,NULL,Key,beggar_ind_sarc-start,PressedKey, ,1739380175357,6318,beggar_ind_sarc,1,Wait success
1739380583,7a80f08f45b84e3c16d3c647c4aec7e1,PennController,37,0,exp,NULL,Key,0-Angela and Eric were walking in a park.,PressedKey, ,1739380176897,6318,beggar_ind_sarc,1,Wait success
1739380583,7a80f08f45b84e3c16d3c647c4aec7e1,PennController,37,0,exp,NULL,Key,1-Angela saw Eric walk past a beggar in the park without giving him any money%2C,PressedKey, ,1739380178656,6318,beggar_ind_sarc,1,Wait success
1739380583,7a80f08f45b84e3c16d3c647c4aec7e1,PennController,37,0,exp,NULL,Key,2-so Angela said that,PressedKey, ,1739380179117,6318,beggar_ind_sarc,1,Wait success
1739380583,7a80f08f45b84e3c16d3c647c4aec7e1,PennController,37,0,exp,NULL,Key,3-Eric was,PressedKey, ,1739380179506,6318,beggar_ind_sarc,1,Wait success
1739380583,7a80f08f45b84e3c16d3c647c4aec7e1,PennController,37,0,exp,NULL,Key,4-surprisingly,PressedKey, ,1739380179858,6318,beggar_ind_sarc,1,Wait success
1739380583,7a80f08f45b84e3c16d3c647c4aec7e1,PennController,37,0,exp,NULL,Key,5-generous%2C,PressedKey, ,1739380180181,6318,beggar_ind_sarc,1,Wait success
1739380583,7a80f08f45b84e3c16d3c647c4aec7e1,PennController,37,0,exp,NULL,Key,6-and went back,PressedKey, ,1739380180626,6318,beggar_ind_sarc,1,Wait success
1739380583,7a80f08f45b84e3c16d3c647c4aec7e1,PennController,37,0,exp,NULL,Key,7-to leave some coins,PressedKey, ,1739380181083,6318,beggar_ind_sarc,1,Wait success
1739380583,7a80f08f45b84e3c16d3c647c4aec7e1,PennController,37,0,exp,NULL,Key,8-for the beggar.,PressedKey, ,1739380181516,6318,beggar_ind_sarc,1,Wait success
1739380583,7a80f08f45b84e3c16d3c647c4aec7e1,PennController,37,0,exp,NULL,PennController,34,_Trial_,End,1739380181518,6318,beggar_ind_sarc,1,NULL
# 15. Comments.
1739380583,7a80f08f45b84e3c16d3c647c4aec7e1,PennController,79,0,filler,NULL,PennController,76,_Trial_,Start,1739380181520,6318,filler_38,NULL
1739380583,7a80f08f45b84e3c16d3c647c4aec7e1,PennController,79,0,filler,NULL,PennController,76,_Header_,Start,1739380181520,6318,filler_38,NULL
1739380583,7a80f08f45b84e3c16d3c647c4aec7e1,PennController,79,0,filler,NULL,PennController,76,_Header_,End,1739380181520,6318,filler_38,NULL
1739380583,7a80f08f45b84e3c16d3c647c4aec7e1,PennController,79,0,filler,NULL,Key,filler_38-start,PressedKey, ,1739380183531,6318,filler_38,Wait success
1739380583,7a80f08f45b84e3c16d3c647c4aec7e1,PennController,79,0,filler,NULL,Key,0-Riley and Camilla visited an aquarium.,PressedKey, ,1739380188947,6318,filler_38,Wait success
1739380583,7a80f08f45b84e3c16d3c647c4aec7e1,PennController,79,0,filler,NULL,Key,1-Camilla accidentally dropped her ticket into the water.,PressedKey, ,1739380192761,6318,filler_38,Wait success
1739380583,7a80f08f45b84e3c16d3c647c4aec7e1,PennController,79,0,filler,NULL,Key,2-Riley said:,PressedKey, ,1739380193217,6318,filler_38,Wait success
1739380583,7a80f08f45b84e3c16d3c647c4aec7e1,PennController,79,0,filler,NULL,Key,3-"Please,PressedKey, ,1739380193619,6318,filler_38,Wait success
1739380583,7a80f08f45b84e3c16d3c647c4aec7e1,PennController,79,0,filler,NULL,Key,4-be more careful,PressedKey, ,1739380193951,6318,filler_38,Wait success
1739380583,7a80f08f45b84e3c16d3c647c4aec7e1,PennController,79,0,filler,NULL,Key,5-with your belongings.",PressedKey, ,1739380194276,6318,filler_38,Wait success
1739380583,7a80f08f45b84e3c16d3c647c4aec7e1,PennController,79,0,filler,NULL,PennController,76,_Trial_,End,1739380194277,6318,filler_38,NULL
1739380583,7a80f08f45b84e3c16d3c647c4aec7e1,PennController,88,0,filler,NULL,PennController,85,_Trial_,Start,1739380194279,6318,filler_47,NULL
1739380583,7a80f08f45b84e3c16d3c647c4aec7e1,PennController,88,0,filler,NULL,PennController,85,_Header_,Start,1739380194279,6318,filler_47,NULL
1739380583,7a80f08f45b84e3c16d3c647c4aec7e1,PennController,88,0,filler,NULL,PennController,85,_Header_,End,1739380194279,6318,filler_47,NULL
1739380583,7a80f08f45b84e3c16d3c647c4aec7e1,PennController,88,0,filler,NULL,Key,filler_47-start,PressedKey, ,1739380195146,6318,filler_47,Wait success
1739380583,7a80f08f45b84e3c16d3c647c4aec7e1,PennController,88,0,filler,NULL,Key,0-During their visit to a local workshop%2C,PressedKey, ,1739380196952,6318,filler_47,Wait success
1739380583,7a80f08f45b84e3c16d3c647c4aec7e1,PennController,88,0,filler,NULL,Key,1-June accidentally used the wrong tool for the task%2C,PressedKey, ,1739380199838,6318,filler_47,Wait success
1739380583,7a80f08f45b84e3c16d3c647c4aec7e1,PennController,88,0,filler,NULL,Key,2-prompting Ralph to remark that,PressedKey, ,1739380200624,6318,filler_47,Wait success
1739380583,7a80f08f45b84e3c16d3c647c4aec7e1,PennController,88,0,filler,NULL,Key,3-she should,PressedKey, ,1739380201019,6318,filler_47,Wait success
1739380583,7a80f08f45b84e3c16d3c647c4aec7e1,PennController,88,0,filler,NULL,Key,4-use,PressedKey, ,1739380201390,6318,filler_47,Wait success
1739380583,7a80f08f45b84e3c16d3c647c4aec7e1,PennController,88,0,filler,NULL,Key,5-the appropriate tool,PressedKey, ,1739380201884,6318,filler_47,Wait success
1739380583,7a80f08f45b84e3c16d3c647c4aec7e1,PennController,88,0,filler,NULL,Key,6-next time.,PressedKey, ,1739380202313,6318,filler_47,Wait success
1739380583,7a80f08f45b84e3c16d3c647c4aec7e1,PennController,88,0,filler,NULL,PennController,85,_Trial_,End,1739380202314,6318,filler_47,NULL
# 15. group.
# 16. Comments.
1739380583,7a80f08f45b84e3c16d3c647c4aec7e1,PennController,36,0,exp,NULL,PennController,33,_Trial_,Start,1739380202315,6318,boots_ind_lit,1,NULL
1739380583,7a80f08f45b84e3c16d3c647c4aec7e1,PennController,36,0,exp,NULL,PennController,33,_Header_,Start,1739380202315,6318,boots_ind_lit,1,NULL
1739380583,7a80f08f45b84e3c16d3c647c4aec7e1,PennController,36,0,exp,NULL,PennController,33,_Header_,End,1739380202315,6318,boots_ind_lit,1,NULL
1739380583,7a80f08f45b84e3c16d3c647c4aec7e1,PennController,36,0,exp,NULL,Key,boots_ind_lit-start,PressedKey, ,1739380203187,6318,boots_ind_lit,1,Wait success
1739380583,7a80f08f45b84e3c16d3c647c4aec7e1,PennController,36,0,exp,NULL,Key,0-Dorothy had bad fashion sense.,PressedKey, ,1739380204132,6318,boots_ind_lit,1,Wait success
1739380583,7a80f08f45b84e3c16d3c647c4aec7e1,PennController,36,0,exp,NULL,Key,1-Last week%2C Nicholas found Dorothy wearing ugly shoes as usual,PressedKey, ,1739380206261,6318,boots_ind_lit,1,Wait success
1739380583,7a80f08f45b84e3c16d3c647c4aec7e1,PennController,36,0,exp,NULL,Key,2-and said that,PressedKey, ,1739380206815,6318,boots_ind_lit,1,Wait success
1739380583,7a80f08f45b84e3c16d3c647c4aec7e1,PennController,36,0,exp,NULL,Key,3-her shoes were,PressedKey, ,1739380207268,6318,boots_ind_lit,1,Wait success
1739380583,7a80f08f45b84e3c16d3c647c4aec7e1,PennController,36,0,exp,NULL,Key,4-really,PressedKey, ,1739380207637,6318,boots_ind_lit,1,Wait success
1739380583,7a80f08f45b84e3c16d3c647c4aec7e1,PennController,36,0,exp,NULL,Key,5-ugly,PressedKey, ,1739380208025,6318,boots_ind_lit,1,Wait success
1739380583,7a80f08f45b84e3c16d3c647c4aec7e1,PennController,36,0,exp,NULL,Key,6-and she should,PressedKey, ,1739380208391,6318,boots_ind_lit,1,Wait success
1739380583,7a80f08f45b84e3c16d3c647c4aec7e1,PennController,36,0,exp,NULL,Key,7-buy some nice clothes.,PressedKey, ,1739380208815,6318,boots_ind_lit,1,Wait success
1739380583,7a80f08f45b84e3c16d3c647c4aec7e1,PennController,36,0,exp,NULL,PennController,33,_Trial_,End,1739380208816,6318,boots_ind_lit,1,NULL
# 15. Comments.
1739380583,7a80f08f45b84e3c16d3c647c4aec7e1,PennController,51,0,filler,NULL,PennController,48,_Trial_,Start,1739380208818,6318,filler_10,NULL
1739380583,7a80f08f45b84e3c16d3c647c4aec7e1,PennController,51,0,filler,NULL,PennController,48,_Header_,Start,1739380208818,6318,filler_10,NULL
1739380583,7a80f08f45b84e3c16d3c647c4aec7e1,PennController,51,0,filler,NULL,PennController,48,_Header_,End,1739380208818,6318,filler_10,NULL
1739380583,7a80f08f45b84e3c16d3c647c4aec7e1,PennController,51,0,filler,NULL,Key,filler_10-start,PressedKey, ,1739380210734,6318,filler_10,Wait success
1739380583,7a80f08f45b84e3c16d3c647c4aec7e1,PennController,51,0,filler,NULL,Key,0-Caleb and Ruby visited a science exhibition.,PressedKey, ,1739380213498,6318,filler_10,Wait success
1739380583,7a80f08f45b84e3c16d3c647c4aec7e1,PennController,51,0,filler,NULL,Key,1-Ruby accidentally knocked over a display.,PressedKey, ,1739380216951,6318,filler_10,Wait success
1739380583,7a80f08f45b84e3c16d3c647c4aec7e1,PennController,51,0,filler,NULL,Key,2-Caleb remarked that,PressedKey, ,1739380217732,6318,filler_10,Wait success
1739380583,7a80f08f45b84e3c16d3c647c4aec7e1,PennController,51,0,filler,NULL,Key,3-she should be,PressedKey, ,1739380218579,6318,filler_10,Wait success
1739380583,7a80f08f45b84e3c16d3c647c4aec7e1,PennController,51,0,filler,NULL,Key,4-more careful,PressedKey, ,1739380219121,6318,filler_10,Wait success
1739380583,7a80f08f45b84e3c16d3c647c4aec7e1,PennController,51,0,filler,NULL,Key,5-around the exhibits.,PressedKey, ,1739380222274,6318,filler_10,Wait success
# 15. Whether or not answer was correct (NULL if N/A).
# 16. Time taken to answer..
# 17. Comments.
1739380583,7a80f08f45b84e3c16d3c647c4aec7e1,PennController,51,0,filler,NULL,Controller-Question,Question,Did Ruby handle the display carefully?,No,1739380225057,6318,filler_10,0,2780,Any addtional parameters were appended as additional columns
# 15. Comments.
1739380583,7a80f08f45b84e3c16d3c647c4aec7e1,PennController,51,0,filler,NULL,PennController,48,_Trial_,End,1739380225058,6318,filler_10,NULL
# 15. group.
# 16. Comments.
1739380583,7a80f08f45b84e3c16d3c647c4aec7e1,PennController,32,0,exp,NULL,PennController,29,_Trial_,Start,1739380225060,6318,cook_ind_lit,1,NULL
1739380583,7a80f08f45b84e3c16d3c647c4aec7e1,PennController,32,0,exp,NULL,PennController,29,_Header_,Start,1739380225060,6318,cook_ind_lit,1,NULL
1739380583,7a80f08f45b84e3c16d3c647c4aec7e1,PennController,32,0,exp,NULL,PennController,29,_Header_,End,1739380225060,6318,cook_ind_lit,1,NULL
1739380583,7a80f08f45b84e3c16d3c647c4aec7e1,PennController,32,0,exp,NULL,Key,cook_ind_lit-start,PressedKey, ,1739380227793,6318,cook_ind_lit,1,Wait success
1739380583,7a80f08f45b84e3c16d3c647c4aec7e1,PennController,32,0,exp,NULL,Key,0-Jason loved making cakes%2C,PressedKey, ,1739380228558,6318,cook_ind_lit,1,Wait success
1739380583,7a80f08f45b84e3c16d3c647c4aec7e1,PennController,32,0,exp,NULL,Key,1-but he knew the cake he made for Melissa was really awful.,PressedKey, ,1739380229968,6318,cook_ind_lit,1,Wait success
1739380583,7a80f08f45b84e3c16d3c647c4aec7e1,PennController,32,0,exp,NULL,Key,2-Melissa told Jason the next day that,PressedKey, ,1739380230842,6318,cook_ind_lit,1,Wait success
1739380583,7a80f08f45b84e3c16d3c647c4aec7e1,PennController,32,0,exp,NULL,Key,3-he was a,PressedKey, ,1739380231217,6318,cook_ind_lit,1,Wait success
1739380583,7a80f08f45b84e3c16d3c647c4aec7e1,PennController,32,0,exp,NULL,Key,4-really,PressedKey, ,1739380231566,6318,cook_ind_lit,1,Wait success
1739380583,7a80f08f45b84e3c16d3c647c4aec7e1,PennController,32,0,exp,NULL,Key,5-terrible,PressedKey, ,1739380231885,6318,cook_ind_lit,1,Wait success
1739380583,7a80f08f45b84e3c16d3c647c4aec7e1,PennController,32,0,exp,NULL,Key,6-cook,PressedKey, ,1739380232226,6318,cook_ind_lit,1,Wait success
1739380583,7a80f08f45b84e3c16d3c647c4aec7e1,PennController,32,0,exp,NULL,Key,7-and that edible cake,PressedKey, ,1739380232636,6318,cook_ind_lit,1,Wait success
1739380583,7a80f08f45b84e3c16d3c647c4aec7e1,PennController,32,0,exp,NULL,Key,8-was her only birthday wish.,PressedKey, ,1739380233145,6318,cook_ind_lit,1,Wait success
1739380583,7a80f08f45b84e3c16d3c647c4aec7e1,PennController,32,0,exp,NULL,PennController,29,_Trial_,End,1739380233147,6318,cook_ind_lit,1,NULL
# 15. Comments.
1739380583,7a80f08f45b84e3c16d3c647c4aec7e1,PennController,70,0,filler,NULL,PennController,67,_Trial_,Start,1739380233148,6318,filler_29,NULL
1739380583,7a80f08f45b84e3c16d3c647c4aec7e1,PennController,70,0,filler,NULL,PennController,67,_Header_,Start,1739380233148,6318,filler_29,NULL
1739380583,7a80f08f45b84e3c16d3c647c4aec7e1,PennController,70,0,filler,NULL,PennController,67,_Header_,End,1739380233148,6318,filler_29,NULL
1739380583,7a80f08f45b84e3c16d3c647c4aec7e1,PennController,70,0,filler,NULL,Key,filler_29-start,PressedKey, ,1739380234096,6318,filler_29,Wait success
1739380583,7a80f08f45b84e3c16d3c647c4aec7e1,PennController,70,0,filler,NULL,Key,0-Mitchell and Poppy attended a community seminar.,PressedKey, ,1739380235787,6318,filler_29,Wait success
1739380583,7a80f08f45b84e3c16d3c647c4aec7e1,PennController,70,0,filler,NULL,Key,1-Poppy missed an important announcement.,PressedKey, ,1739380236926,6318,filler_29,Wait success
1739380583,7a80f08f45b84e3c16d3c647c4aec7e1,PennController,70,0,filler,NULL,Key,2-Mitchell said:,PressedKey, ,1739380237666,6318,filler_29,Wait success
1739380583,7a80f08f45b84e3c16d3c647c4aec7e1,PennController,70,0,filler,NULL,Key,3-"You should,PressedKey, ,1739380238943,6318,filler_29,Wait success
1739380583,7a80f08f45b84e3c16d3c647c4aec7e1,PennController,70,0,filler,NULL,Key,4-pay closer attention,PressedKey, ,1739380239542,6318,filler_29,Wait success
1739380583,7a80f08f45b84e3c16d3c647c4aec7e1,PennController,70,0,filler,NULL,Key,5-during the seminar.",PressedKey, ,1739380240713,6318,filler_29,Wait success
1739380583,7a80f08f45b84e3c16d3c647c4aec7e1,PennController,70,0,filler,NULL,PennController,67,_Trial_,End,1739380240714,6318,filler_29,NULL
1739380583,7a80f08f45b84e3c16d3c647c4aec7e1,PennController,42,0,filler,NULL,PennController,39,_Trial_,Start,1739380240715,6318,filler_01,NULL
1739380583,7a80f08f45b84e3c16d3c647c4aec7e1,PennController,42,0,filler,NULL,PennController,39,_Header_,Start,1739380240715,6318,filler_01,NULL
1739380583,7a80f08f45b84e3c16d3c647c4aec7e1,PennController,42,0,filler,NULL,PennController,39,_Header_,End,1739380240715,6318,filler_01,NULL
1739380583,7a80f08f45b84e3c16d3c647c4aec7e1,PennController,42,0,filler,NULL,Key,filler_01-start,PressedKey, ,1739380243643,6318,filler_01,Wait success
1739380583,7a80f08f45b84e3c16d3c647c4aec7e1,PennController,42,0,filler,NULL,Key,0-Peter and Lucy visited a local art gallery.,PressedKey, ,1739380247928,6318,filler_01,Wait success
1739380583,7a80f08f45b84e3c16d3c647c4aec7e1,PennController,42,0,filler,NULL,Key,1-While admiring the paintings%2C,PressedKey, ,1739380248647,6318,filler_01,Wait success
1739380583,7a80f08f45b84e3c16d3c647c4aec7e1,PennController,42,0,filler,NULL,Key,2-Lucy accidentally spilled her drink.,PressedKey, ,1739380249293,6318,filler_01,Wait success
1739380583,7a80f08f45b84e3c16d3c647c4aec7e1,PennController,42,0,filler,NULL,Key,3-Peter said:"Please,PressedKey, ,1739380249821,6318,filler_01,Wait success
1739380583,7a80f08f45b84e3c16d3c647c4aec7e1,PennController,42,0,filler,NULL,Key,4-be careful,PressedKey, ,1739380250242,6318,filler_01,Wait success
1739380583,7a80f08f45b84e3c16d3c647c4aec7e1,PennController,42,0,filler,NULL,Key,5-around the exhibits.",PressedKey, ,1739380250606,6318,filler_01,Wait success
# 15. Whether or not answer was correct (NULL if N/A).
# 16. Time taken to answer..
# 17. Comments.
1739380583,7a80f08f45b84e3c16d3c647c4aec7e1,PennController,42,0,filler,NULL,Controller-Question,Question,Did Lucy accidentally spill her drink at the art gallery?,Yes,1739380253209,6318,filler_01,1,2601,Any addtional parameters were appended as additional columns
# 15. Comments.
1739380583,7a80f08f45b84e3c16d3c647c4aec7e1,PennController,42,0,filler,NULL,PennController,39,_Trial_,End,1739380253211,6318,filler_01,NULL
# 15. group.
# 16. Comments.
1739380583,7a80f08f45b84e3c16d3c647c4aec7e1,PennController,35,0,exp,NULL,PennController,32,_Trial_,Start,1739380253212,6318,speech_dir_sarc,1,NULL
1739380583,7a80f08f45b84e3c16d3c647c4aec7e1,PennController,35,0,exp,NULL,PennController,32,_Header_,Start,1739380253212,6318,speech_dir_sarc,1,NULL
1739380583,7a80f08f45b84e3c16d3c647c4aec7e1,PennController,35,0,exp,NULL,PennController,32,_Header_,End,1739380253212,6318,speech_dir_sarc,1,NULL
1739380583,7a80f08f45b84e3c16d3c647c4aec7e1,PennController,35,0,exp,NULL,Key,speech_dir_sarc-start,PressedKey, ,1739380254375,6318,speech_dir_sarc,1,Wait success
1739380583,7a80f08f45b84e3c16d3c647c4aec7e1,PennController,35,0,exp,NULL,Key,0-Laura was asked to make a speech in class,PressedKey, ,1739380255360,6318,speech_dir_sarc,1,Wait success
1739380583,7a80f08f45b84e3c16d3c647c4aec7e1,PennController,35,0,exp,NULL,Key,1-and everyone found her speech tedious.,PressedKey, ,1739380256664,6318,speech_dir_sarc,1,Wait success
1739380583,7a80f08f45b84e3c16d3c647c4aec7e1,PennController,35,0,exp,NULL,Key,2-Jacob told Laura after class:,PressedKey, ,1739380258288,6318,speech_dir_sarc,1,Wait success
1739380583,7a80f08f45b84e3c16d3c647c4aec7e1,PennController,35,0,exp,NULL,Key,3-"What,PressedKey, ,1739380258749,6318,speech_dir_sarc,1,Wait success
1739380583,7a80f08f45b84e3c16d3c647c4aec7e1,PennController,35,0,exp,NULL,Key,4-an engaging,PressedKey, ,1739380259219,6318,speech_dir_sarc,1,Wait success
1739380583,7a80f08f45b84e3c16d3c647c4aec7e1,PennController,35,0,exp,NULL,Key,5-speech.,PressedKey, ,1739380259558,6318,speech_dir_sarc,1,Wait success
1739380583,7a80f08f45b84e3c16d3c647c4aec7e1,PennController,35,0,exp,NULL,Key,6-You should really,PressedKey, ,1739380260343,6318,speech_dir_sarc,1,Wait success
1739380583,7a80f08f45b84e3c16d3c647c4aec7e1,PennController,35,0,exp,NULL,Key,7-practice your public speaking skills.",PressedKey, ,1739380260861,6318,speech_dir_sarc,1,Wait success
1739380583,7a80f08f45b84e3c16d3c647c4aec7e1,PennController,35,0,exp,NULL,PennController,32,_Trial_,End,1739380260863,6318,speech_dir_sarc,1,NULL
# 15. Comments.
1739380583,7a80f08f45b84e3c16d3c647c4aec7e1,PennController,73,0,filler,NULL,PennController,70,_Trial_,Start,1739380260865,6318,filler_32,NULL
1739380583,7a80f08f45b84e3c16d3c647c4aec7e1,PennController,73,0,filler,NULL,PennController,70,_Header_,Start,1739380260865,6318,filler_32,NULL
1739380583,7a80f08f45b84e3c16d3c647c4aec7e1,PennController,73,0,filler,NULL,PennController,70,_Header_,End,1739380260865,6318,filler_32,NULL
1739380583,7a80f08f45b84e3c16d3c647c4aec7e1,PennController,73,0,filler,NULL,Key,filler_32-start,PressedKey, ,1739380261955,6318,filler_32,Wait success
1739380583,7a80f08f45b84e3c16d3c647c4aec7e1,PennController,73,0,filler,NULL,Key,0-Colin and Eden explored a local park.,PressedKey, ,1739380266189,6318,filler_32,Wait success
1739380583,7a80f08f45b84e3c16d3c647c4aec7e1,PennController,73,0,filler,NULL,Key,1-Eden accidentally tripped over a small rock.,PressedKey, ,1739380266971,6318,filler_32,Wait success
1739380583,7a80f08f45b84e3c16d3c647c4aec7e1,PennController,73,0,filler,NULL,Key,2-Colin said:,PressedKey, ,1739380267404,6318,filler_32,Wait success
1739380583,7a80f08f45b84e3c16d3c647c4aec7e1,PennController,73,0,filler,NULL,Key,3-"Watch,PressedKey, ,1739380268014,6318,filler_32,Wait success
1739380583,7a80f08f45b84e3c16d3c647c4aec7e1,PennController,73,0,filler,NULL,Key,4-your step,PressedKey, ,1739380268343,6318,filler_32,Wait success
1739380583,7a80f08f45b84e3c16d3c647c4aec7e1,PennController,73,0,filler,NULL,Key,5-to avoid injuries.",PressedKey, ,1739380268849,6318,filler_32,Wait success
1739380583,7a80f08f45b84e3c16d3c647c4aec7e1,PennController,73,0,filler,NULL,PennController,70,_Trial_,End,1739380268850,6318,filler_32,NULL
# 15. group.
# 16. Comments.
1739380583,7a80f08f45b84e3c16d3c647c4aec7e1,PennController,33,0,exp,NULL,PennController,30,_Trial_,Start,1739380268852,6318,sofa_ind_sarc,1,NULL
1739380583,7a80f08f45b84e3c16d3c647c4aec7e1,PennController,33,0,exp,NULL,PennController,30,_Header_,Start,1739380268852,6318,sofa_ind_sarc,1,NULL
1739380583,7a80f08f45b84e3c16d3c647c4aec7e1,PennController,33,0,exp,NULL,PennController,30,_Header_,End,1739380268852,6318,sofa_ind_sarc,1,NULL
1739380583,7a80f08f45b84e3c16d3c647c4aec7e1,PennController,33,0,exp,NULL,Key,sofa_ind_sarc-start,PressedKey, ,1739380269784,6318,sofa_ind_sarc,1,Wait success
1739380583,7a80f08f45b84e3c16d3c647c4aec7e1,PennController,33,0,exp,NULL,Key,0-Stephanie and Edward were flatmates,PressedKey, ,1739380270969,6318,sofa_ind_sarc,1,Wait success
1739380583,7a80f08f45b84e3c16d3c647c4aec7e1,PennController,33,0,exp,NULL,Key,1-and Stephanie saw Edward lying on the sofa all week long.,PressedKey, ,1739380272315,6318,sofa_ind_sarc,1,Wait success
1739380583,7a80f08f45b84e3c16d3c647c4aec7e1,PennController,33,0,exp,NULL,Key,2-Stephanie finally said that,PressedKey, ,1739380272865,6318,sofa_ind_sarc,1,Wait success
1739380583,7a80f08f45b84e3c16d3c647c4aec7e1,PennController,33,0,exp,NULL,Key,3-Edward was,PressedKey, ,1739380273317,6318,sofa_ind_sarc,1,Wait success
1739380583,7a80f08f45b84e3c16d3c647c4aec7e1,PennController,33,0,exp,NULL,Key,4-very,PressedKey, ,1739380273784,6318,sofa_ind_sarc,1,Wait success
1739380583,7a80f08f45b84e3c16d3c647c4aec7e1,PennController,33,0,exp,NULL,Key,5-energetic,PressedKey, ,1739380274188,6318,sofa_ind_sarc,1,Wait success
1739380583,7a80f08f45b84e3c16d3c647c4aec7e1,PennController,33,0,exp,NULL,Key,6-and needed to,PressedKey, ,1739380274581,6318,sofa_ind_sarc,1,Wait success
1739380583,7a80f08f45b84e3c16d3c647c4aec7e1,PennController,33,0,exp,NULL,Key,7-get some fresh air%2C,PressedKey, ,1739380275009,6318,sofa_ind_sarc,1,Wait success
1739380583,7a80f08f45b84e3c16d3c647c4aec7e1,PennController,33,0,exp,NULL,Key,8-trying to encourage Edward,PressedKey, ,1739380275500,6318,sofa_ind_sarc,1,Wait success
1739380583,7a80f08f45b84e3c16d3c647c4aec7e1,PennController,33,0,exp,NULL,Key,9-to go out.,PressedKey, ,1739380275987,6318,sofa_ind_sarc,1,Wait success
1739380583,7a80f08f45b84e3c16d3c647c4aec7e1,PennController,33,0,exp,NULL,PennController,30,_Trial_,End,1739380275988,6318,sofa_ind_sarc,1,NULL
# 15. Comments.
1739380583,7a80f08f45b84e3c16d3c647c4aec7e1,PennController,53,0,filler,NULL,PennController,50,_Trial_,Start,1739380275990,6318,filler_12,NULL
1739380583,7a80f08f45b84e3c16d3c647c4aec7e1,PennController,53,0,filler,NULL,PennController,50,_Header_,Start,1739380275990,6318,filler_12,NULL
1739380583,7a80f08f45b84e3c16d3c647c4aec7e1,PennController,53,0,filler,NULL,PennController,50,_Header_,End,1739380275990,6318,filler_12,NULL
1739380583,7a80f08f45b84e3c16d3c647c4aec7e1,PennController,53,0,filler,NULL,Key,filler_12-start,PressedKey, ,1739380276893,6318,filler_12,Wait success
1739380583,7a80f08f45b84e3c16d3c647c4aec7e1,PennController,53,0,filler,NULL,Key,0-Victor and Stella enjoyed a picnic in the park.,PressedKey, ,1739380280681,6318,filler_12,Wait success
1739380583,7a80f08f45b84e3c16d3c647c4aec7e1,PennController,53,0,filler,NULL,Key,1-Stella forgot to bring the napkins.,PressedKey, ,1739380281593,6318,filler_12,Wait success
1739380583,7a80f08f45b84e3c16d3c647c4aec7e1,PennController,53,0,filler,NULL,Key,2-Victor said:,PressedKey, ,1739380282026,6318,filler_12,Wait success
1739380583,7a80f08f45b84e3c16d3c647c4aec7e1,PennController,53,0,filler,NULL,Key,3-"Next time%2C,PressedKey, ,1739380282386,6318,filler_12,Wait success
1739380583,7a80f08f45b84e3c16d3c647c4aec7e1,PennController,53,0,filler,NULL,Key,4-please remember,PressedKey, ,1739380282785,6318,filler_12,Wait success
1739380583,7a80f08f45b84e3c16d3c647c4aec7e1,PennController,53,0,filler,NULL,Key,5-to bring,PressedKey, ,1739380283183,6318,filler_12,Wait success
1739380583,7a80f08f45b84e3c16d3c647c4aec7e1,PennController,53,0,filler,NULL,Key,6-all,PressedKey, ,1739380283572,6318,filler_12,Wait success
1739380583,7a80f08f45b84e3c16d3c647c4aec7e1,PennController,53,0,filler,NULL,Key,7-the supplies.",PressedKey, ,1739380283941,6318,filler_12,Wait success
# 15. Whether or not answer was correct (NULL if N/A).
# 16. Time taken to answer..
# 17. Comments.
1739380583,7a80f08f45b84e3c16d3c647c4aec7e1,PennController,53,0,filler,NULL,Controller-Question,Question,Did Stella remember the napkins?,No,1739380285714,6318,filler_12,0,1770,Any addtional parameters were appended as additional columns
# 15. Comments.
1739380583,7a80f08f45b84e3c16d3c647c4aec7e1,PennController,53,0,filler,NULL,PennController,50,_Trial_,End,1739380285715,6318,filler_12,NULL
1739380583,7a80f08f45b84e3c16d3c647c4aec7e1,PennController,50,0,filler,NULL,PennController,47,_Trial_,Start,1739380285716,6318,filler_09,NULL
1739380583,7a80f08f45b84e3c16d3c647c4aec7e1,PennController,50,0,filler,NULL,PennController,47,_Header_,Start,1739380285716,6318,filler_09,NULL
1739380583,7a80f08f45b84e3c16d3c647c4aec7e1,PennController,50,0,filler,NULL,PennController,47,_Header_,End,1739380285716,6318,filler_09,NULL
1739380583,7a80f08f45b84e3c16d3c647c4aec7e1,PennController,50,0,filler,NULL,Key,filler_09-start,PressedKey, ,1739380286615,6318,filler_09,Wait success
1739380583,7a80f08f45b84e3c16d3c647c4aec7e1,PennController,50,0,filler,NULL,Key,0-At a film screening%2C,PressedKey, ,1739380287936,6318,filler_09,Wait success
1739380583,7a80f08f45b84e3c16d3c647c4aec7e1,PennController,50,0,filler,NULL,Key,1-Frederick noticed that Beatrice had commented inappropriately during the movie%2C,PressedKey, ,1739380290368,6318,filler_09,Wait success
1739380583,7a80f08f45b84e3c16d3c647c4aec7e1,PennController,50,0,filler,NULL,Key,2-and he said:,PressedKey, ,1739380290862,6318,filler_09,Wait success
1739380583,7a80f08f45b84e3c16d3c647c4aec7e1,PennController,50,0,filler,NULL,Key,3-'It would be better,PressedKey, ,1739380291193,6318,filler_09,Wait success
1739380583,7a80f08f45b84e3c16d3c647c4aec7e1,PennController,50,0,filler,NULL,Key,4-to remain quiet,PressedKey, ,1739380291559,6318,filler_09,Wait success
1739380583,7a80f08f45b84e3c16d3c647c4aec7e1,PennController,50,0,filler,NULL,Key,5-during the screening.',PressedKey, ,1739380291948,6318,filler_09,Wait success
# 15. Whether or not answer was correct (NULL if N/A).
# 16. Time taken to answer..
# 17. Comments.
1739380583,7a80f08f45b84e3c16d3c647c4aec7e1,PennController,50,0,filler,NULL,Controller-Question,Question,Did Beatrice remain silent during the film?,No,1739380293798,6318,filler_09,0,1848,Any addtional parameters were appended as additional columns
# 15. Comments.
1739380583,7a80f08f45b84e3c16d3c647c4aec7e1,PennController,50,0,filler,NULL,PennController,47,_Trial_,End,1739380293800,6318,filler_09,NULL
# 15. group.
# 16. Comments.
1739380583,7a80f08f45b84e3c16d3c647c4aec7e1,PennController,22,0,exp,NULL,PennController,19,_Trial_,Start,1739380293801,6318,marathon_dir_lit,1,NULL
1739380583,7a80f08f45b84e3c16d3c647c4aec7e1,PennController,22,0,exp,NULL,PennController,19,_Header_,Start,1739380293801,6318,marathon_dir_lit,1,NULL
1739380583,7a80f08f45b84e3c16d3c647c4aec7e1,PennController,22,0,exp,NULL,PennController,19,_Header_,End,1739380293801,6318,marathon_dir_lit,1,NULL
1739380583,7a80f08f45b84e3c16d3c647c4aec7e1,PennController,22,0,exp,NULL,Key,marathon_dir_lit-start,PressedKey, ,1739380294756,6318,marathon_dir_lit,1,Wait success
1739380583,7a80f08f45b84e3c16d3c647c4aec7e1,PennController,22,0,exp,NULL,Key,0-Jane participated in a marathon%2C boasting that she would be the champion.,PressedKey, ,1739380296930,6318,marathon_dir_lit,1,Wait success
1739380583,7a80f08f45b84e3c16d3c647c4aec7e1,PennController,22,0,exp,NULL,Key,1-Steven waited at the finishing post where Jane was one the last few people to finish the race.,PressedKey, ,1739380299285,6318,marathon_dir_lit,1,Wait success
1739380583,7a80f08f45b84e3c16d3c647c4aec7e1,PennController,22,0,exp,NULL,Key,2-Steven smirked,PressedKey, ,1739380299825,6318,marathon_dir_lit,1,Wait success
1739380583,7a80f08f45b84e3c16d3c647c4aec7e1,PennController,22,0,exp,NULL,Key,3-and said:,PressedKey, ,1739380300220,6318,marathon_dir_lit,1,Wait success
1739380583,7a80f08f45b84e3c16d3c647c4aec7e1,PennController,22,0,exp,NULL,Key,4-" You were,PressedKey, ,1739380300599,6318,marathon_dir_lit,1,Wait success
1739380583,7a80f08f45b84e3c16d3c647c4aec7e1,PennController,22,0,exp,NULL,Key,5-such a,PressedKey, ,1739380300979,6318,marathon_dir_lit,1,Wait success
1739380583,7a80f08f45b84e3c16d3c647c4aec7e1,PennController,22,0,exp,NULL,Key,6-slow,PressedKey, ,1739380301366,6318,marathon_dir_lit,1,Wait success
1739380583,7a80f08f45b84e3c16d3c647c4aec7e1,PennController,22,0,exp,NULL,Key,7-runner.",PressedKey, ,1739380301704,6318,marathon_dir_lit,1,Wait success
1739380583,7a80f08f45b84e3c16d3c647c4aec7e1,PennController,22,0,exp,NULL,PennController,19,_Trial_,End,1739380301705,6318,marathon_dir_lit,1,NULL
# 15. Comments.
1739380583,7a80f08f45b84e3c16d3c647c4aec7e1,PennController,64,0,filler,NULL,PennController,61,_Trial_,Start,1739380301706,6318,filler_23,NULL
1739380583,7a80f08f45b84e3c16d3c647c4aec7e1,PennController,64,0,filler,NULL,PennController,61,_Header_,Start,1739380301707,6318,filler_23,NULL
1739380583,7a80f08f45b84e3c16d3c647c4aec7e1,PennController,64,0,filler,NULL,PennController,61,_Header_,End,1739380301707,6318,filler_23,NULL
1739380583,7a80f08f45b84e3c16d3c647c4aec7e1,PennController,64,0,filler,NULL,Key,filler_23-start,PressedKey, ,1739380303142,6318,filler_23,Wait success
1739380583,7a80f08f45b84e3c16d3c647c4aec7e1,PennController,64,0,filler,NULL,Key,0-Charles and Mabel visited a historical site.,PressedKey, ,1739380305057,6318,filler_23,Wait success
1739380583,7a80f08f45b84e3c16d3c647c4aec7e1,PennController,64,0,filler,NULL,Key,1-Mabel misunderstood the tour guide's explanation.,PressedKey, ,1739380306196,6318,filler_23,Wait success
1739380583,7a80f08f45b84e3c16d3c647c4aec7e1,PennController,64,0,filler,NULL,Key,2-Charles remarked that,PressedKey, ,1739380306597,6318,filler_23,Wait success
1739380583,7a80f08f45b84e3c16d3c647c4aec7e1,PennController,64,0,filler,NULL,Key,3-it might be,PressedKey, ,1739380306976,6318,filler_23,Wait success
1739380583,7a80f08f45b84e3c16d3c647c4aec7e1,PennController,64,0,filler,NULL,Key,4-beneficial,PressedKey, ,1739380307301,6318,filler_23,Wait success
1739380583,7a80f08f45b84e3c16d3c647c4aec7e1,PennController,64,0,filler,NULL,Key,5-for her,PressedKey, ,1739380307668,6318,filler_23,Wait success
1739380583,7a80f08f45b84e3c16d3c647c4aec7e1,PennController,64,0,filler,NULL,Key,6-to ask for clarification,PressedKey, ,1739380308090,6318,filler_23,Wait success
1739380583,7a80f08f45b84e3c16d3c647c4aec7e1,PennController,64,0,filler,NULL,Key,7-when needed.,PressedKey, ,1739380308550,6318,filler_23,Wait success
1739380583,7a80f08f45b84e3c16d3c647c4aec7e1,PennController,64,0,filler,NULL,PennController,61,_Trial_,End,1739380308551,6318,filler_23,NULL
# 15. group.
# 16. Comments.
1739380583,7a80f08f45b84e3c16d3c647c4aec7e1,PennController,26,0,exp,NULL,PennController,23,_Trial_,Start,1739380308553,6318,award_dir_lit,1,NULL
1739380583,7a80f08f45b84e3c16d3c647c4aec7e1,PennController,26,0,exp,NULL,PennController,23,_Header_,Start,1739380308553,6318,award_dir_lit,1,NULL
1739380583,7a80f08f45b84e3c16d3c647c4aec7e1,PennController,26,0,exp,NULL,PennController,23,_Header_,End,1739380308553,6318,award_dir_lit,1,NULL
1739380583,7a80f08f45b84e3c16d3c647c4aec7e1,PennController,26,0,exp,NULL,Key,award_dir_lit-start,PressedKey, ,1739380309818,6318,award_dir_lit,1,Wait success
1739380583,7a80f08f45b84e3c16d3c647c4aec7e1,PennController,26,0,exp,NULL,Key,0-After a competition in school%2C,PressedKey, ,1739380311872,6318,award_dir_lit,1,Wait success
1739380583,7a80f08f45b84e3c16d3c647c4aec7e1,PennController,26,0,exp,NULL,Key,1-Jessica achieved the first prize but Kenneth didn’t win any awards.,PressedKey, ,1739380314045,6318,award_dir_lit,1,Wait success
1739380583,7a80f08f45b84e3c16d3c647c4aec7e1,PennController,26,0,exp,NULL,Key,2-Jessica said:,PressedKey, ,1739380314937,6318,award_dir_lit,1,Wait success
1739380583,7a80f08f45b84e3c16d3c647c4aec7e1,PennController,26,0,exp,NULL,Key,3-"You are,PressedKey, ,1739380315429,6318,award_dir_lit,1,Wait success
1739380583,7a80f08f45b84e3c16d3c647c4aec7e1,PennController,26,0,exp,NULL,Key,4-awful.,PressedKey, ,1739380315836,6318,award_dir_lit,1,Wait success
1739380583,7a80f08f45b84e3c16d3c647c4aec7e1,PennController,26,0,exp,NULL,Key,5-It is not a hard competition,PressedKey, ,1739380316474,6318,award_dir_lit,1,Wait success
1739380583,7a80f08f45b84e3c16d3c647c4aec7e1,PennController,26,0,exp,NULL,Key,6-at all%2C",PressedKey, ,1739380316892,6318,award_dir_lit,1,Wait success
1739380583,7a80f08f45b84e3c16d3c647c4aec7e1,PennController,26,0,exp,NULL,Key,7-and left.,PressedKey, ,1739380317358,6318,award_dir_lit,1,Wait success
1739380583,7a80f08f45b84e3c16d3c647c4aec7e1,PennController,26,0,exp,NULL,PennController,23,_Trial_,End,1739380317359,6318,award_dir_lit,1,NULL
# 15. Comments.
1739380583,7a80f08f45b84e3c16d3c647c4aec7e1,PennController,69,0,filler,NULL,PennController,66,_Trial_,Start,1739380317360,6318,filler_28,NULL
1739380583,7a80f08f45b84e3c16d3c647c4aec7e1,PennController,69,0,filler,NULL,PennController,66,_Header_,Start,1739380317360,6318,filler_28,NULL
1739380583,7a80f08f45b84e3c16d3c647c4aec7e1,PennController,69,0,filler,NULL,PennController,66,_Header_,End,1739380317360,6318,filler_28,NULL
1739380583,7a80f08f45b84e3c16d3c647c4aec7e1,PennController,69,0,filler,NULL,Key,filler_28-start,PressedKey, ,1739380318256,6318,filler_28,Wait success
1739380583,7a80f08f45b84e3c16d3c647c4aec7e1,PennController,69,0,filler,NULL,Key,0-During their walk along the river%2C Naomi dropped her keys into the water%2C,PressedKey, ,1739380321124,6318,filler_28,Wait success
1739380583,7a80f08f45b84e3c16d3c647c4aec7e1,PennController,69,0,filler,NULL,Key,1-prompting Spencer to remark that,PressedKey, ,1739380321818,6318,filler_28,Wait success
1739380583,7a80f08f45b84e3c16d3c647c4aec7e1,PennController,69,0,filler,NULL,Key,2-she should,PressedKey, ,1739380322176,6318,filler_28,Wait success
1739380583,7a80f08f45b84e3c16d3c647c4aec7e1,PennController,69,0,filler,NULL,Key,3-secure her belongings,PressedKey, ,1739380322620,6318,filler_28,Wait success
1739380583,7a80f08f45b84e3c16d3c647c4aec7e1,PennController,69,0,filler,NULL,Key,4-better,PressedKey, ,1739380323016,6318,filler_28,Wait success
1739380583,7a80f08f45b84e3c16d3c647c4aec7e1,PennController,69,0,filler,NULL,Key,5-next time.,PressedKey, ,1739380323416,6318,filler_28,Wait success
1739380583,7a80f08f45b84e3c16d3c647c4aec7e1,PennController,69,0,filler,NULL,PennController,66,_Trial_,End,1739380323418,6318,filler_28,NULL
1739380583,7a80f08f45b84e3c16d3c647c4aec7e1,PennController,89,0,filler,NULL,PennController,86,_Trial_,Start,1739380323419,6318,filler_48,NULL
1739380583,7a80f08f45b84e3c16d3c647c4aec7e1,PennController,89,0,filler,NULL,PennController,86,_Header_,Start,1739380323419,6318,filler_48,NULL
1739380583,7a80f08f45b84e3c16d3c647c4aec7e1,PennController,89,0,filler,NULL,PennController,86,_Header_,End,1739380323419,6318,filler_48,NULL
1739380583,7a80f08f45b84e3c16d3c647c4aec7e1,PennController,89,0,filler,NULL,Key,filler_48-start,PressedKey, ,1739380324459,6318,filler_48,Wait success
1739380583,7a80f08f45b84e3c16d3c647c4aec7e1,PennController,89,0,filler,NULL,Key,0-Leonard and Olive went to a cooking demonstration.,PressedKey, ,1739380325597,6318,filler_48,Wait success
1739380583,7a80f08f45b84e3c16d3c647c4aec7e1,PennController,89,0,filler,NULL,Key,1-Olive confused the recipe steps.,PressedKey, ,1739380326707,6318,filler_48,Wait success
1739380583,7a80f08f45b84e3c16d3c647c4aec7e1,PennController,89,0,filler,NULL,Key,2-Leonard remarked that,PressedKey, ,1739380327366,6318,filler_48,Wait success
1739380583,7a80f08f45b84e3c16d3c647c4aec7e1,PennController,89,0,filler,NULL,Key,3-she should,PressedKey, ,1739380327809,6318,filler_48,Wait success
1739380583,7a80f08f45b84e3c16d3c647c4aec7e1,PennController,89,0,filler,NULL,Key,4-review the instructions,PressedKey, ,1739380328607,6318,filler_48,Wait success
1739380583,7a80f08f45b84e3c16d3c647c4aec7e1,PennController,89,0,filler,NULL,Key,5-carefully,PressedKey, ,1739380329043,6318,filler_48,Wait success
1739380583,7a80f08f45b84e3c16d3c647c4aec7e1,PennController,89,0,filler,NULL,Key,6-before attempting the recipe.,PressedKey, ,1739380329473,6318,filler_48,Wait success
1739380583,7a80f08f45b84e3c16d3c647c4aec7e1,PennController,89,0,filler,NULL,PennController,86,_Trial_,End,1739380329475,6318,filler_48,NULL
# 15. group.
# 16. Comments.
1739380583,7a80f08f45b84e3c16d3c647c4aec7e1,PennController,10,0,exp,NULL,PennController,7,_Trial_,Start,1739380329476,6318,library_dir_lit,1,NULL
1739380583,7a80f08f45b84e3c16d3c647c4aec7e1,PennController,10,0,exp,NULL,PennController,7,_Header_,Start,1739380329476,6318,library_dir_lit,1,NULL
1739380583,7a80f08f45b84e3c16d3c647c4aec7e1,PennController,10,0,exp,NULL,PennController,7,_Header_,End,1739380329476,6318,library_dir_lit,1,NULL
1739380583,7a80f08f45b84e3c16d3c647c4aec7e1,PennController,10,0,exp,NULL,Key,library_dir_lit-start,PressedKey, ,1739380330385,6318,library_dir_lit,1,Wait success
1739380583,7a80f08f45b84e3c16d3c647c4aec7e1,PennController,10,0,exp,NULL,Key,0-John and Mary went to the library together.,PressedKey, ,1739380331894,6318,library_dir_lit,1,Wait success
1739380583,7a80f08f45b84e3c16d3c647c4aec7e1,PennController,10,0,exp,NULL,Key,1-While they were studying%2C Mary answered several phone calls in a very loud voice.,PressedKey, ,1739380333400,6318,library_dir_lit,1,Wait success
1739380583,7a80f08f45b84e3c16d3c647c4aec7e1,PennController,10,0,exp,NULL,Key,2-John said:,PressedKey, ,1739380333965,6318,library_dir_lit,1,Wait success
1739380583,7a80f08f45b84e3c16d3c647c4aec7e1,PennController,10,0,exp,NULL,Key,3-"Mary%2C,PressedKey, ,1739380334386,6318,library_dir_lit,1,Wait success
1739380583,7a80f08f45b84e3c16d3c647c4aec7e1,PennController,10,0,exp,NULL,Key,4-you're speaking,PressedKey, ,1739380334782,6318,library_dir_lit,1,Wait success
1739380583,7a80f08f45b84e3c16d3c647c4aec7e1,PennController,10,0,exp,NULL,Key,5-too,PressedKey, ,1739380335107,6318,library_dir_lit,1,Wait success
1739380583,7a80f08f45b84e3c16d3c647c4aec7e1,PennController,10,0,exp,NULL,Key,6-loudly,PressedKey, ,1739380335474,6318,library_dir_lit,1,Wait success
